# Energy shift = 0.0
# Y-offset = 0.0+-0.0004, AE = 12.5697+-0.0923, Scale Factor = 0.1215+-0.0206, Alpha = 1.4291+-0.2311
# Y-offset = 0.002+-0.0119, AE = 14.2686+-0.3894, Scale Factor = 0.1538+-0.0745, Alpha = 1.0778+-0.6596
# -------------------------------------------------------------
Energy	Counts	Errors	Combined Fit	Fit 1	Fit 2(incl. prev.)
11.000000	0.230000	0.063016	0.001993	0.000000	0.001993
11.070000	0.020000	0.019900	0.001993	0.000000	0.001993
11.150000	0.000000	0.000000	0.001993	0.000000	0.001993
11.220000	0.000000	0.000000	0.001993	0.000000	0.001993
11.300000	0.000000	0.000000	0.001993	0.000000	0.001993
11.370000	0.040000	0.019596	0.001993	0.000000	0.001993
11.450000	0.000000	0.000000	0.001993	0.000000	0.001993
11.520000	0.040000	0.031369	0.001993	0.000000	0.001993
11.600000	0.000000	0.000000	0.001993	0.000000	0.001993
11.670000	0.000000	0.000000	0.001993	0.000000	0.001993
11.750000	0.020000	0.014000	0.001993	0.000000	0.001993
11.820000	0.000000	0.000000	0.001993	0.000000	0.001993
11.900000	0.010000	0.009950	0.001993	0.000000	0.001993
11.970000	0.020000	0.014000	0.001993	0.000000	0.001993
12.050000	0.010000	0.009950	0.001993	0.000000	0.001993
12.120000	0.000000	0.000000	0.001994	0.000001	0.001994
12.200000	0.000000	0.000000	0.001999	0.000006	0.001999
12.270000	0.010000	0.009950	0.002032	0.000039	0.002032
12.350000	0.000000	0.000000	0.002222	0.000230	0.002222
12.420000	0.000000	0.000000	0.002838	0.000845	0.002838
12.500000	0.010000	0.009950	0.004865	0.002872	0.004865
12.570000	0.030000	0.017059	0.008796	0.006803	0.008796
12.650000	0.030000	0.022159	0.016855	0.014862	0.016855
12.720000	0.040000	0.019596	0.027411	0.025418	0.027411
12.800000	0.030000	0.017059	0.043203	0.041210	0.043203
12.870000	0.090000	0.037670	0.059750	0.057757	0.059750
12.950000	0.130000	0.043943	0.081182	0.079189	0.081182
13.020000	0.110000	0.042178	0.101790	0.099797	0.101790
13.100000	0.120000	0.043081	0.127191	0.125198	0.127191
13.170000	0.080000	0.030594	0.150877	0.148884	0.150877
13.250000	0.140000	0.051029	0.179478	0.177485	0.179478
13.320000	0.350000	0.071239	0.205751	0.203758	0.205751
13.400000	0.300000	0.064031	0.237114	0.235121	0.237114
13.470000	0.290000	0.069707	0.265663	0.263670	0.265663
13.550000	0.380000	0.071805	0.299488	0.297495	0.299488
13.620000	0.310000	0.065871	0.330088	0.328095	0.330088
13.700000	0.440000	0.089800	0.366154	0.364161	0.366154
13.770000	0.320000	0.070541	0.398634	0.396640	0.398634
13.850000	0.350000	0.071239	0.436771	0.434773	0.436771
13.920000	0.460000	0.088792	0.471026	0.468996	0.471026
14.000000	0.520000	0.084238	0.511300	0.509055	0.511300
14.070000	0.660000	0.097180	0.547935	0.544910	0.547935
14.150000	0.610000	0.109449	0.592659	0.586777	0.592659
14.220000	0.630000	0.108310	0.636021	0.624170	0.636021
14.300000	0.590000	0.084965	0.692388	0.667747	0.692388
14.370000	0.840000	0.145410	0.748123	0.706597	0.748123
14.450000	0.930000	0.146462	0.817888	0.751799	0.817888
14.520000	0.970000	0.128417	0.882528	0.792036	0.882528
14.600000	0.960000	0.131848	0.958890	0.838788	0.958890
14.670000	0.940000	0.129476	1.027157	0.880352	1.027157
14.750000	1.130000	0.138315	1.106469	0.928588	1.106469
14.820000	1.120000	0.129058	1.176869	0.971424	1.176869
14.900000	1.330000	0.150370	1.258387	1.021085	1.258387
14.970000	1.290000	0.143035	1.330594	1.065145	1.330594
15.050000	1.230000	0.150236	1.414074	1.116179	1.414074
15.120000	1.760000	0.189272	1.487923	1.161419	1.487923
15.200000	1.440000	0.153831	1.573209	1.213779	1.573209
15.270000	1.720000	0.186054	1.648584	1.260159	1.648584
15.350000	2.040000	0.197444	1.735560	1.313801	1.735560
15.420000	1.790000	0.177930	1.812372	1.361285	1.812372
15.500000	1.880000	0.184000	1.900946	1.416169	1.900946
15.570000	1.940000	0.187521	1.979121	1.464724	1.979121
15.650000	2.050000	0.187283	2.069216	1.520814	2.069216
15.720000	2.180000	0.218806	2.148693	1.570409	2.148693
15.800000	2.290000	0.224185	2.240245	1.627671	2.240245
15.870000	2.210000	0.235922	2.320970	1.678278	2.320970
15.950000	2.420000	0.213157	2.413921	1.736682	2.413921
16.020000	2.710000	0.227286	2.495849	1.788275	2.495849
16.100000	2.600000	0.238747	2.590149	1.847791	2.590149
16.170000	2.740000	0.250448	2.673238	1.900345	2.673238
16.250000	2.740000	0.246422	2.768843	1.960946	2.768843
16.320000	2.790000	0.255458	2.853054	2.014438	2.853054
16.400000	2.930000	0.243826	2.949924	2.076099	2.949924
16.470000	3.130000	0.281302	3.035225	2.130509	3.035225
16.550000	3.150000	0.274727	3.133321	2.193206	3.133321
16.620000	3.200000	0.283196	3.219681	2.248512	3.219681
16.700000	3.380000	0.278129	3.318970	2.312223	3.318970
16.770000	3.610000	0.300631	3.406361	2.368407	3.406361
16.850000	3.470000	0.267752	3.506812	2.433112	3.506812
16.920000	3.990000	0.347705	3.595206	2.490155	3.595206
17.000000	3.730000	0.296599	3.696791	2.555832	3.696791
17.070000	3.700000	0.312570	3.786165	2.613719	3.786165
17.150000	4.220000	0.334837	3.888856	2.680351	3.888856
17.220000	4.680000	0.337899	3.979187	2.739064	3.979187
17.300000	3.870000	0.286236	4.082959	2.806632	4.082959
17.370000	3.960000	0.322466	4.174226	2.866158	4.174226
17.450000	4.310000	0.320217	4.279056	2.934644	4.279056
17.520000	4.300000	0.333317	4.371238	2.994967	4.371238
17.600000	4.300000	0.336601	4.477103	3.064357	4.477103
17.670000	4.390000	0.314609	4.570182	3.125464	4.570182
17.750000	4.710000	0.362297	4.677063	3.195742	4.677063
17.820000	4.880000	0.369129	4.771020	3.257618	4.771020
17.900000	4.510000	0.316700	4.878896	3.328769	4.878896
17.970000	5.030000	0.380908	4.973716	3.391404	4.973716
18.050000	5.510000	0.381443	5.082568	3.463414	5.082568
18.120000	5.010000	0.348567	5.178234	3.526794	5.178234
18.200000	4.800000	0.347563	5.288045	3.599650	5.288045
18.270000	5.150000	0.369696	5.384543	3.663764	5.384543
18.350000	5.630000	0.448699	5.495295	3.737453	5.495295
18.420000	5.230000	0.395691	5.592610	3.802291	5.592610
18.500000	5.200000	0.408901	5.704288	3.876800	5.704288
18.570000	5.970000	0.402108	5.802407	3.942350	5.802407
18.650000	6.670000	0.481260	5.914995	4.017668	5.914995
18.720000	5.930000	0.432031	6.013904	4.083920	6.013904
18.800000	5.870000	0.422529	6.127388	4.160035	6.127388
18.870000	6.010000	0.437149	6.227075	4.226981	6.227075
18.950000	5.830000	0.350159	6.341441	4.303882	6.341441
19.020000	6.350000	0.441673	6.441893	4.371511	6.441893
19.100000	6.140000	0.391668	6.557129	4.449187	6.557129
19.170000	5.970000	0.400364	6.658335	4.517491	6.658335
19.250000	6.170000	0.424041	6.774426	4.595933	6.774426
19.320000	5.840000	0.444459	6.876376	4.664901	6.876376
19.400000	6.710000	0.505232	6.993704	4.744493	6.993704
19.470000	6.610000	0.441338	7.096384	4.814116	7.096384
19.550000	6.540000	0.459439	7.214148	4.894058	7.214148
19.620000	7.280000	0.502211	7.317551	4.964330	7.317551
19.700000	7.030000	0.485480	7.436135	5.045009	7.436135
19.770000	6.530000	0.431614	7.540251	5.115922	7.540251
19.850000	7.620000	0.504932	7.659644	5.197329	7.659644
19.920000	6.740000	0.445111	7.764464	5.268876	7.764464
20.000000	7.060000	0.443130	7.884655	5.351003	7.884655
20.070000	7.310000	0.476171	7.990170	5.423176	7.990170
20.150000	6.930000	0.473340	8.111150	5.506014	8.111150
20.220000	7.950000	0.508994	8.217350	5.578806	8.217350
20.300000	7.160000	0.468555	8.339109	5.662348	8.339109
20.370000	7.740000	0.507271	8.445986	5.735752	8.445986
20.450000	7.910000	0.487462	8.568515	5.819989	8.568515
20.520000	7.890000	0.485983	8.676061	5.893998	8.676061
20.600000	8.130000	0.498529	8.799349	5.978923	8.799349
20.670000	8.560000	0.534850	8.907556	6.053531	8.907556
20.750000	8.210000	0.518902	9.031596	6.139137	9.031596
20.820000	7.820000	0.538216	9.140456	6.214338	9.140456
20.900000	8.570000	0.545207	9.265238	6.300617	9.265238
20.970000	8.330000	0.572548	9.374745	6.376404	9.374745
21.050000	8.880000	0.497047	9.500296	6.463350	9.500296
21.120000	8.760000	0.583116	9.610441	6.539717	9.610441
21.200000	8.900000	0.562228	9.736683	6.627323	9.736683
21.270000	9.470000	0.620235	9.847460	6.704265	9.847460
21.350000	9.200000	0.565862	9.974420	6.792524	9.974420
21.420000	9.570000	0.558794	10.085822	6.870034	10.085822
21.500000	9.520000	0.580427	10.213492	6.958941	10.213492
21.570000	8.680000	0.552970	10.325513	7.037014	10.325513
21.650000	8.760000	0.538353	10.454316	7.126992	10.454316
21.720000	8.410000	0.509921	10.566947	7.205622	10.566947
21.800000	9.790000	0.603207	10.696014	7.295801	10.696014
21.870000	9.300000	0.621852	10.809251	7.374984	10.809251
21.950000	9.840000	0.642918	10.939007	7.465793	10.939007
22.020000	9.220000	0.567553	11.052843	7.545523	11.052843
22.100000	10.200000	0.649307	11.183282	7.636955	11.183282
22.170000	10.270000	0.645268	11.297712	7.717228	11.297712
22.250000	9.830000	0.576898	11.428826	7.809277	11.428826
22.320000	9.920000	0.603934	11.543844	7.890089	11.543844
22.400000	10.250000	0.583159	11.675628	7.982750	11.675628
22.470000	10.330000	0.645454	11.791228	8.064094	11.791228
22.550000	10.680000	0.629584	11.923674	8.157362	11.923674
22.620000	10.940000	0.685685	12.039852	8.239235	12.039852
22.700000	11.650000	0.702620	12.172955	8.333105	12.172955
22.770000	11.000000	0.693542	12.289705	8.415502	12.289705
22.850000	10.080000	0.608388	12.423458	8.509968	12.423458
22.920000	10.120000	0.604364	12.540774	8.592885	12.540774
23.000000	10.470000	0.635996	12.675172	8.687942	12.675172
23.070000	11.270000	0.680273	12.793050	8.771374	12.793050
23.150000	11.270000	0.647897	12.928087	8.867018	12.928087
23.220000	11.660000	0.698029	13.046522	8.950962	13.046522
23.300000	11.780000	0.701367	13.182227	9.047188	13.182227
23.370000	11.780000	0.667020	13.301214	9.131638	13.301214
23.450000	11.560000	0.714608	13.437512	9.228441	13.437512
23.520000	11.540000	0.649526	13.557046	9.313395	13.557046
23.600000	11.440000	0.696178	13.693967	9.410771	13.693967
23.670000	11.600000	0.733076	13.814043	9.496224	13.814043
23.750000	12.300000	0.777753	13.951581	9.594168	13.951581
23.820000	12.090000	0.727062	14.072196	9.680116	14.072196
23.900000	11.870000	0.702518	14.210810	9.779087	14.210810
23.970000	11.880000	0.672202	14.331957	9.865525	14.331957
24.050000	11.380000	0.685971	14.470714	9.964590	14.470714
24.120000	11.770000	0.706237	14.592390	10.051516	14.592390
24.200000	11.960000	0.672149	14.731749	10.151137	14.731749
24.270000	12.190000	0.685521	14.853951	10.238547	14.853951
24.350000	12.720000	0.769945	14.993908	10.338720	14.993908
24.420000	12.000000	0.720555	15.116631	10.426610	15.116631
24.500000	12.460000	0.720752	15.257181	10.527330	15.257181
24.570000	11.740000	0.688421	15.380421	10.615698	15.380421
24.650000	12.360000	0.725744	15.521561	10.716961	15.521561
24.720000	12.640000	0.698644	15.645314	10.805803	15.645314
24.800000	12.250000	0.719496	15.787037	10.907606	15.787037
24.870000	12.640000	0.704630	15.911300	10.996918	15.911300
24.950000	12.300000	0.729315	16.053603	11.099257	16.053603
25.020000	13.200000	0.754851	16.178371	11.189036	16.178371
25.100000	12.950000	0.733263	16.321251	11.291907	16.321251
25.170000	12.730000	0.742948	16.446521	11.382150	16.446521
25.250000	13.100000	0.730411	16.589971	11.485549	16.589971
25.320000	12.990000	0.723532	16.715739	11.576254	16.715739
25.400000	13.010000	0.725327	16.859758	11.680178	16.859758
25.470000	13.150000	0.741805	16.986020	11.771340	16.986020
25.550000	12.680000	0.723724	17.130636	11.875785	17.130636
25.620000	13.050000	0.829623	17.257390	11.967402	17.257390
25.700000	13.100000	0.806784	17.402530	12.072365	17.402530
25.770000	13.150000	0.727238	17.529772	12.164434	17.529772
25.850000	13.740000	0.789889	17.675468	12.269911	17.675468
25.920000	13.140000	0.787276	17.803194	12.362429	17.803194
26.000000	12.880000	0.783872	17.949442	12.468418	17.949442
26.070000	12.910000	0.723892	18.077649	12.561381	18.077649
26.150000	13.080000	0.760747	18.224938	12.668372	18.224938
26.220000	13.760000	0.782831	18.353622	12.761777	18.353622
26.300000	13.440000	0.736657	18.500960	12.868777	18.500960
26.370000	12.990000	0.793158	18.630118	12.962622	18.630118
26.450000	14.340000	0.787810	18.777997	13.070124	18.777997
26.520000	13.720000	0.803004	18.907627	13.164406	18.907627
26.600000	13.320000	0.792828	19.056043	13.272407	19.056043
26.670000	13.480000	0.827222	19.186141	13.367124	19.186141
26.750000	13.950000	0.823939	19.335091	13.475620	19.335091
26.820000	13.960000	0.816323	19.465655	13.570770	19.465655
26.900000	13.670000	0.801505	19.615135	13.679759	19.615135
26.970000	13.770000	0.825694	19.746161	13.775338	19.746161
27.050000	14.340000	0.858862	19.896169	13.884816	19.896169
27.120000	14.060000	0.804465	20.027654	13.980823	20.027654
27.200000	13.730000	0.753108	20.178185	14.090787	20.178185
27.270000	13.910000	0.789822	20.310128	14.187219	20.310128
27.350000	13.400000	0.783582	20.461179	14.297667	20.461179
27.420000	13.770000	0.788398	20.593575	14.394520	20.593575
27.500000	13.890000	0.750186	20.745144	14.505450	20.745144
27.570000	14.080000	0.816906	20.877991	14.602723	20.877991
27.650000	13.520000	0.746389	21.030074	14.714131	21.030074
27.720000	14.830000	0.853821	21.163370	14.811821	21.163370
27.800000	14.550000	0.832992	21.315997	14.923704	21.315997
27.870000	15.620000	0.841282	21.449739	15.021810	21.449739
27.950000	14.260000	0.832661	21.602840	15.134166	21.602840
28.020000	15.610000	0.811529	21.737025	15.232684	21.737025
28.100000	14.700000	0.846227	21.890631	15.345510	21.890631
28.170000	14.390000	0.792325	22.025256	15.444438	22.025256
28.250000	13.980000	0.840355	22.179364	15.557732	22.179364
28.320000	14.190000	0.799712	22.314428	15.657068	22.314428
28.400000	14.830000	0.798004	22.469557	15.771350	22.469557
28.470000	14.330000	0.750873	22.605054	15.871090	22.605054
28.550000	14.470000	0.856791	22.760156	15.985311	22.760156
28.620000	15.100000	0.875500	22.896087	16.085455	22.896087
28.700000	16.000000	0.924878	23.051682	16.200136	23.051682
28.770000	14.760000	0.825605	23.188043	16.300681	23.188043
28.850000	14.610000	0.834493	23.344129	16.415820	23.344129
28.920000	14.730000	0.779981	23.480918	16.516765	23.480918
29.000000	15.310000	0.872318	23.637492	16.632358	23.637492
29.070000	14.740000	0.848719	23.774707	16.733701	23.774707
29.150000	14.650000	0.847511	23.931767	16.849747	23.931767
29.220000	15.500000	0.856796	24.069405	16.951485	24.069405
29.300000	14.250000	0.782736	24.226947	17.067982	24.226947
29.370000	14.680000	0.890717	24.365007	17.170113	24.365007
29.450000	14.940000	0.834005	24.523029	17.287058	24.523029
29.520000	15.120000	0.846319	24.661508	17.389580	24.661508
29.600000	16.280000	0.920986	24.820008	17.506971	24.820008
29.670000	14.840000	0.810644	24.958903	17.609883	24.958903
29.750000	15.880000	0.811453	25.117877	17.727717	25.117877
29.820000	15.040000	0.816568	25.257187	17.831016	25.257187
29.900000	14.890000	0.850752	25.416634	17.949292	25.416634
29.970000	14.610000	0.912019	25.556357	18.052977	25.556357
