# Energy shift = 0.8
# a_3: -680.069988 +- 0.000027, a_2: 158.0109 +- 0.0025, a_1: -12.25 +- 0.11, a_0: 0.3 +- 2.0, domain: [12.8eV ,15.56eV]
# Y-offset = 0.0087+-0.0312, AE = 15.6771+-0.0057, Scale Factor = 31.2869+-0.2512, Alpha = 1.1476+-0.011
# -------------------------------------------------------------
Energy	Counts	Errors	Combined Fit	Fit 1	Fit 2(incl. prev.)
12.800000	6.267000	0.362052	0.354945	0.346269	0.354945
12.810000	0.306700	0.083770	0.357031	0.348355	0.357031
12.820000	0.413300	0.082831	0.359103	0.350427	0.359103
12.830000	0.413300	0.100305	0.361162	0.352486	0.361162
12.840000	0.426700	0.104285	0.363211	0.354535	0.363211
12.850000	0.253300	0.063377	0.365251	0.356575	0.365251
12.860000	0.386700	0.085784	0.367284	0.358608	0.367284
12.870000	0.240000	0.065102	0.369313	0.360637	0.369313
12.880000	0.453300	0.088738	0.371338	0.362662	0.371338
12.890000	0.400000	0.097980	0.373362	0.364686	0.373362
12.900000	0.306700	0.077142	0.375387	0.366711	0.375387
12.910000	0.373300	0.087202	0.377415	0.368739	0.377415
12.920000	0.453300	0.096419	0.379448	0.370772	0.379448
12.930000	0.466700	0.095063	0.381487	0.372811	0.381487
12.940000	0.280000	0.065401	0.383534	0.374858	0.383534
12.950000	0.320000	0.065537	0.385592	0.376916	0.385592
12.960000	0.360000	0.084475	0.387662	0.378985	0.387662
12.970000	0.480000	0.109431	0.389746	0.381069	0.389746
12.980000	0.253300	0.063377	0.391846	0.383170	0.391846
12.990000	0.533300	0.106110	0.393964	0.385287	0.393964
13.000000	0.400000	0.092376	0.396101	0.387425	0.396101
13.010000	0.386700	0.091790	0.398261	0.389585	0.398261
13.020000	0.346700	0.085887	0.400444	0.391768	0.400444
13.030000	0.333300	0.078693	0.402653	0.393977	0.402653
13.040000	0.520000	0.107381	0.404889	0.396213	0.404889
13.050000	0.400000	0.094281	0.407154	0.398478	0.407154
13.060000	0.293300	0.066364	0.409451	0.400775	0.409451
13.070000	0.306700	0.074801	0.411780	0.403104	0.411780
13.080000	0.320000	0.075613	0.414145	0.405469	0.414145
13.090000	0.320000	0.090588	0.416547	0.407871	0.416547
13.100000	0.426700	0.091577	0.418987	0.410311	0.418987
13.110000	0.520000	0.116893	0.421469	0.412793	0.421469
13.120000	0.373300	0.102218	0.423993	0.415317	0.423993
13.130000	0.573300	0.108872	0.426561	0.417885	0.426561
13.140000	0.506700	0.103600	0.429176	0.420500	0.429176
13.150000	0.546700	0.101363	0.431839	0.423163	0.431839
13.160000	0.440000	0.103056	0.434553	0.425877	0.434553
13.170000	0.440000	0.088182	0.437318	0.428642	0.437318
13.180000	0.586700	0.122995	0.440138	0.431462	0.440138
13.190000	0.413300	0.082831	0.443013	0.434337	0.443013
13.200000	0.293300	0.080855	0.445947	0.437271	0.445947
13.210000	0.373300	0.091188	0.448940	0.440264	0.448940
13.220000	0.586700	0.107574	0.451995	0.443319	0.451995
13.230000	0.360000	0.082343	0.455113	0.446437	0.455113
13.240000	0.506700	0.092735	0.458297	0.449621	0.458297
13.250000	0.600000	0.114310	0.461548	0.452872	0.461548
13.260000	0.560000	0.111746	0.464868	0.456192	0.464868
13.270000	0.533300	0.117252	0.468260	0.459583	0.468260
13.280000	0.333300	0.083089	0.471724	0.463048	0.471724
13.290000	0.493300	0.111454	0.475264	0.466587	0.475264
13.300000	0.413300	0.089038	0.478880	0.470204	0.478880
13.310000	0.533300	0.106110	0.482575	0.473899	0.482575
13.320000	0.533300	0.095530	0.486351	0.477675	0.486351
13.330000	0.546700	0.103102	0.490209	0.481533	0.490209
13.340000	0.680000	0.117500	0.494152	0.485475	0.494152
13.350000	0.600000	0.111156	0.498181	0.489505	0.498181
13.360000	0.546700	0.106494	0.502298	0.493622	0.502298
13.370000	0.573300	0.110493	0.506505	0.497829	0.506505
13.380000	0.560000	0.116421	0.510805	0.502129	0.510805
13.390000	0.546700	0.101363	0.515198	0.506522	0.515198
13.400000	0.360000	0.070730	0.519688	0.511012	0.519688
13.410000	0.600000	0.117379	0.524275	0.515599	0.524275
13.420000	0.626700	0.106894	0.528961	0.520285	0.528961
13.430000	0.733300	0.121350	0.533750	0.525074	0.533750
13.440000	0.680000	0.124836	0.538642	0.529965	0.538642
13.450000	0.546700	0.101363	0.543639	0.534963	0.543639
13.460000	0.600000	0.114310	0.548743	0.540067	0.548743
13.470000	0.480000	0.089800	0.553957	0.545280	0.553957
13.480000	0.773300	0.128978	0.559281	0.550605	0.559281
13.490000	0.666700	0.107772	0.564719	0.556043	0.564719
13.500000	0.773300	0.130349	0.570271	0.561595	0.570271
13.510000	0.800000	0.137275	0.575940	0.567264	0.575940
13.520000	0.693300	0.114677	0.581728	0.573052	0.581728
13.530000	0.773300	0.128978	0.587636	0.578960	0.587636
13.540000	0.773300	0.130349	0.593667	0.584991	0.593667
13.550000	0.613300	0.109863	0.599823	0.591147	0.599823
13.560000	0.480000	0.104443	0.606104	0.597428	0.606104
13.570000	0.600000	0.107909	0.612514	0.603838	0.612514
13.580000	0.746700	0.107574	0.619054	0.610377	0.619054
13.590000	0.626700	0.111772	0.625725	0.617049	0.625725
13.600000	0.653300	0.118504	0.632531	0.623855	0.632531
13.610000	0.466700	0.095063	0.639472	0.630796	0.639472
13.620000	0.573300	0.105555	0.646551	0.637875	0.646551
13.630000	0.720000	0.124050	0.653770	0.645094	0.653770
13.640000	0.840000	0.140184	0.661130	0.652454	0.661130
13.650000	0.746700	0.122995	0.668633	0.659957	0.668633
13.660000	0.800000	0.123648	0.676282	0.667606	0.676282
13.670000	0.533300	0.099182	0.684078	0.675402	0.684078
13.680000	0.773300	0.124774	0.692023	0.683347	0.692023
13.690000	0.613300	0.097883	0.700119	0.691443	0.700119
13.700000	0.533300	0.093650	0.708368	0.699692	0.708368
13.710000	0.760000	0.109415	0.716771	0.708095	0.716771
13.720000	0.773300	0.118939	0.725332	0.716656	0.725332
13.730000	0.720000	0.115131	0.734051	0.725375	0.734051
13.740000	0.786700	0.122052	0.742930	0.734254	0.742930
13.750000	0.586700	0.117070	0.751972	0.743296	0.751972
13.760000	0.573300	0.103857	0.761178	0.752502	0.761178
13.770000	0.800000	0.133333	0.770550	0.761874	0.770550
13.780000	1.080000	0.149226	0.780090	0.771414	0.780090
13.790000	0.760000	0.140690	0.789801	0.781125	0.789801
13.800000	0.640000	0.107199	0.799683	0.791007	0.799683
13.810000	1.027000	0.140775	0.809739	0.801063	0.809739
13.820000	0.826700	0.128148	0.819970	0.811294	0.819970
13.830000	0.706700	0.114909	0.830380	0.821704	0.830380
13.840000	0.853300	0.129747	0.840968	0.832292	0.840968
13.850000	0.680000	0.108041	0.851739	0.843063	0.851739
13.860000	0.680000	0.121954	0.862692	0.854016	0.862692
13.870000	0.760000	0.123173	0.873831	0.865155	0.873831
13.880000	1.013000	0.143290	0.885156	0.876480	0.885156
13.890000	1.040000	0.139485	0.896671	0.887995	0.896671
13.900000	0.840000	0.125461	0.908377	0.899701	0.908377
13.910000	0.840000	0.122594	0.920275	0.911599	0.920275
13.920000	0.653300	0.118504	0.932368	0.923692	0.932368
13.930000	1.160000	0.172067	0.944658	0.935982	0.944658
13.940000	0.826700	0.136218	0.957146	0.948470	0.957146
13.950000	0.946700	0.145690	0.969835	0.961159	0.969835
13.960000	0.880000	0.127164	0.982726	0.974050	0.982726
13.970000	1.160000	0.147597	0.995821	0.987145	0.995821
13.980000	0.933300	0.145653	1.009122	1.000446	1.009122
13.990000	0.893300	0.135367	1.022631	1.013955	1.022631
14.000000	0.960000	0.136912	1.036350	1.027674	1.036350
14.010000	0.973300	0.139506	1.050281	1.041605	1.050281
14.020000	1.093000	0.149175	1.064426	1.055750	1.064426
14.030000	1.013000	0.151727	1.078786	1.070110	1.078786
14.040000	0.920000	0.140640	1.093364	1.084688	1.093364
14.050000	0.986700	0.146965	1.108161	1.099485	1.108161
14.060000	1.267000	0.166977	1.123179	1.114503	1.123179
14.070000	0.826700	0.125343	1.138421	1.129745	1.138421
14.080000	0.866700	0.132553	1.153888	1.145212	1.153888
14.090000	0.933300	0.151633	1.169582	1.160906	1.169582
14.100000	1.227000	0.148218	1.185504	1.176828	1.185504
14.110000	1.360000	0.152397	1.201658	1.192982	1.201658
14.120000	1.093000	0.146772	1.218044	1.209368	1.218044
14.130000	1.107000	0.150302	1.234665	1.225989	1.234665
14.140000	1.307000	0.181829	1.251522	1.242846	1.251522
14.150000	1.333000	0.164023	1.268618	1.259942	1.268618
14.160000	1.173000	0.164586	1.285954	1.277278	1.285954
14.170000	1.173000	0.162411	1.303533	1.294856	1.303533
14.180000	1.213000	0.140976	1.321355	1.312679	1.321355
14.190000	1.293000	0.166679	1.339423	1.330747	1.339423
14.200000	1.827000	0.213281	1.357740	1.349064	1.357740
14.210000	1.480000	0.183235	1.376306	1.367630	1.376306
14.220000	1.547000	0.167753	1.395124	1.386448	1.395124
14.230000	1.440000	0.171912	1.414195	1.405519	1.414195
14.240000	1.600000	0.187617	1.433523	1.424846	1.433523
14.250000	1.480000	0.151355	1.453107	1.444431	1.453107
14.260000	1.560000	0.171653	1.472951	1.464275	1.472951
14.270000	1.587000	0.164705	1.493056	1.484380	1.493056
14.280000	1.387000	0.185661	1.513424	1.504748	1.513424
14.290000	1.453000	0.162094	1.534057	1.525381	1.534057
14.300000	1.587000	0.171059	1.554957	1.546281	1.554957
14.310000	1.613000	0.172507	1.576126	1.567450	1.576126
14.320000	1.640000	0.168729	1.597566	1.588890	1.597566
14.330000	1.853000	0.199641	1.619278	1.610602	1.619278
14.340000	1.827000	0.208219	1.641265	1.632589	1.641265
14.350000	1.453000	0.166423	1.663529	1.654852	1.663529
14.360000	1.533000	0.170142	1.686070	1.677394	1.686070
14.370000	1.773000	0.180406	1.708892	1.700216	1.708892
14.380000	1.933000	0.197240	1.731996	1.723320	1.731996
14.390000	1.800000	0.198438	1.755384	1.746708	1.755384
14.400000	1.587000	0.186949	1.779058	1.770382	1.779058
14.410000	1.840000	0.198232	1.803020	1.794344	1.803020
14.420000	2.067000	0.192681	1.827271	1.818595	1.827271
14.430000	1.733000	0.189189	1.851815	1.843138	1.851815
14.440000	1.800000	0.184511	1.876651	1.867975	1.876651
14.450000	1.853000	0.181937	1.901783	1.893107	1.901783
14.460000	2.280000	0.207444	1.927213	1.918537	1.927213
14.470000	2.320000	0.207487	1.952942	1.944266	1.952942
14.480000	1.760000	0.168570	1.978972	1.970296	1.978972
14.490000	1.973000	0.207407	2.005305	1.996628	2.005305
14.500000	2.013000	0.217048	2.031942	2.023266	2.031942
14.510000	2.400000	0.214994	2.058887	2.050211	2.058887
14.520000	2.320000	0.223968	2.086141	2.077465	2.086141
14.530000	2.413000	0.233464	2.113705	2.105029	2.113705
14.540000	2.360000	0.221566	2.141582	2.132905	2.141582
14.550000	2.227000	0.192792	2.169773	2.161097	2.169773
14.560000	2.133000	0.188247	2.198280	2.189604	2.198280
14.570000	2.320000	0.221574	2.227106	2.218430	2.227106
14.580000	2.413000	0.234224	2.256252	2.247576	2.256252
14.590000	2.307000	0.211439	2.285720	2.277044	2.285720
14.600000	1.920000	0.198555	2.315512	2.306836	2.315512
14.610000	2.307000	0.201096	2.345629	2.336953	2.345629
14.620000	2.267000	0.191988	2.376075	2.367399	2.376075
14.630000	2.867000	0.252572	2.406850	2.398174	2.406850
14.640000	2.387000	0.206298	2.437957	2.429281	2.437957
14.650000	2.333000	0.191756	2.469397	2.460721	2.469397
14.660000	2.547000	0.234679	2.501172	2.492496	2.501172
14.670000	2.787000	0.236941	2.533285	2.524609	2.533285
14.680000	2.573000	0.218550	2.565737	2.557061	2.565737
14.690000	2.640000	0.237258	2.598530	2.589854	2.598530
14.700000	3.200000	0.266667	2.631666	2.622990	2.631666
14.710000	2.640000	0.229643	2.665147	2.656471	2.665147
14.720000	2.867000	0.229718	2.698975	2.690299	2.698975
14.730000	2.933000	0.260370	2.733151	2.724475	2.733151
14.740000	2.893000	0.217898	2.767678	2.759002	2.767678
14.750000	2.920000	0.244135	2.802557	2.793881	2.802557
14.760000	2.987000	0.242026	2.837791	2.829115	2.837791
14.770000	3.027000	0.253499	2.873381	2.864705	2.873381
14.780000	2.960000	0.214762	2.909329	2.900653	2.909329
14.790000	2.747000	0.240405	2.945637	2.936961	2.945637
14.800000	3.040000	0.219672	2.982307	2.973631	2.982307
14.810000	3.227000	0.226891	3.019341	3.010665	3.019341
14.820000	3.400000	0.254907	3.056741	3.048065	3.056741
14.830000	3.107000	0.240397	3.094508	3.085832	3.094508
14.840000	3.160000	0.255965	3.132645	3.123969	3.132645
14.850000	2.853000	0.250402	3.171154	3.162478	3.171154
14.860000	3.053000	0.259707	3.210036	3.201360	3.210036
14.870000	3.320000	0.239132	3.249293	3.240617	3.249293
14.880000	2.973000	0.229191	3.288927	3.280251	3.288927
14.890000	3.347000	0.271618	3.328941	3.320265	3.328941
14.900000	3.240000	0.239013	3.369335	3.360659	3.369335
14.910000	3.400000	0.262467	3.410112	3.401436	3.410112
14.920000	4.093000	0.288035	3.451275	3.442598	3.451275
14.930000	2.960000	0.245652	3.492823	3.484147	3.492823
14.940000	4.000000	0.286589	3.534761	3.526085	3.534761
14.950000	3.627000	0.261542	3.577088	3.568412	3.577088
14.960000	3.920000	0.273824	3.619809	3.611133	3.619809
14.970000	3.107000	0.240397	3.662923	3.654247	3.662923
14.980000	3.560000	0.296270	3.706434	3.697758	3.706434
14.990000	3.613000	0.256954	3.750343	3.741666	3.750343
15.000000	3.573000	0.265053	3.794651	3.785975	3.794651
15.010000	3.867000	0.259686	3.839362	3.830686	3.839362
15.020000	4.533000	0.308497	3.884476	3.875800	3.884476
15.030000	3.627000	0.297179	3.929997	3.921320	3.929997
15.040000	3.627000	0.301927	3.975924	3.967248	3.975924
15.050000	4.107000	0.296820	4.022262	4.013585	4.022262
15.060000	3.827000	0.302838	4.069011	4.060334	4.069011
15.070000	4.360000	0.307575	4.116173	4.107496	4.116173
15.080000	4.427000	0.292476	4.163751	4.155073	4.163751
15.090000	4.280000	0.284116	4.211745	4.203067	4.211745
15.100000	3.453000	0.267928	4.260160	4.251480	4.260160
15.110000	4.040000	0.258178	4.308996	4.300314	4.308996
15.120000	5.040000	0.337689	4.358255	4.349571	4.358255
15.130000	4.560000	0.305866	4.407940	4.399252	4.407940
15.140000	4.387000	0.274354	4.458054	4.449361	4.458054
15.150000	4.480000	0.274990	4.508598	4.499897	4.508598
15.160000	4.467000	0.299580	4.559575	4.550864	4.559575
15.170000	4.840000	0.311709	4.610989	4.602264	4.610989
15.180000	4.413000	0.306549	4.662843	4.654097	4.662843
15.190000	5.013000	0.290744	4.715141	4.706367	4.715141
15.200000	4.920000	0.318122	4.767888	4.759075	4.767888
15.210000	4.333000	0.278674	4.821088	4.812222	4.821088
15.220000	5.480000	0.334892	4.874751	4.865811	4.874751
15.230000	4.653000	0.308975	4.928882	4.919845	4.928882
15.240000	5.213000	0.325998	4.983494	4.974323	4.983494
15.250000	4.987000	0.347049	5.038597	5.029249	5.038597
15.260000	5.013000	0.345509	5.094209	5.084625	5.094209
15.270000	4.973000	0.325910	5.150350	5.140452	5.150350
15.280000	4.747000	0.346434	5.207042	5.196732	5.207042
15.290000	5.333000	0.328047	5.264316	5.253467	5.264316
15.300000	4.947000	0.292542	5.322211	5.310659	5.322211
15.310000	4.973000	0.286426	5.380770	5.368311	5.380770
15.320000	5.600000	0.354275	5.440051	5.426423	5.440051
15.330000	5.200000	0.310412	5.500120	5.484997	5.500120
15.340000	5.267000	0.330073	5.561062	5.544037	5.561062
15.350000	5.933000	0.378731	5.622974	5.603542	5.622974
15.360000	5.347000	0.358514	5.685977	5.663517	5.685977
15.370000	5.707000	0.349927	5.750209	5.723961	5.750209
15.380000	5.733000	0.332354	5.815840	5.784878	5.815840
15.390000	5.600000	0.336254	5.883063	5.846269	5.883063
15.400000	6.200000	0.388158	5.952108	5.908136	5.952108
15.410000	6.000000	0.313829	6.023238	5.970481	6.023238
15.420000	5.933000	0.369223	6.096757	6.033305	6.096757
15.430000	5.720000	0.343591	6.173011	6.096612	6.173011
15.440000	6.160000	0.374531	6.252394	6.160402	6.252394
15.450000	5.933000	0.367292	6.335347	6.224677	6.335347
15.460000	6.400000	0.346153	6.422365	6.289440	6.422365
15.470000	6.667000	0.354610	6.513994	6.354692	6.513994
15.480000	6.587000	0.374544	6.610836	6.420436	6.610836
15.490000	6.880000	0.401544	6.713551	6.486672	6.713551
15.500000	5.893000	0.347070	6.822848	6.553404	6.822848
15.510000	6.947000	0.406042	6.939493	6.620633	6.939493
15.520000	6.813000	0.347740	7.064301	6.688360	7.064301
15.530000	6.813000	0.336833	7.198132	6.756588	7.198132
15.540000	7.093000	0.379280	7.341887	6.825319	7.341887
15.550000	6.840000	0.357408	7.496498	6.894554	7.496498
15.560000	8.040000	0.392131	7.662927	6.964296	7.662927
15.570000	8.040000	0.443609	7.842147	7.034546	7.842147
15.580000	7.667000	0.385708	8.035142	7.105306	8.035142
15.590000	8.387000	0.430275	8.242887	7.176579	8.242887
15.600000	8.280000	0.420806	8.466341	7.248365	8.466341
15.610000	8.253000	0.400576	8.706436	7.320668	8.706436
15.620000	8.480000	0.404719	8.964060	7.393488	8.964060
15.630000	9.587000	0.425121	9.240049	7.466828	9.240049
15.640000	9.787000	0.444681	9.535172	7.540690	9.535172
15.650000	10.640000	0.441138	9.850124	7.615075	9.850124
15.660000	11.050000	0.455562	10.185511	7.689986	10.185511
15.670000	10.450000	0.481164	10.541846	7.765424	10.541846
15.680000	11.190000	0.445859	10.919540	7.841391	10.919540
15.690000	11.430000	0.490020	11.318894	7.917889	11.318894
15.700000	12.490000	0.484401	11.740100	7.994920	11.740100
15.710000	12.720000	0.490000	12.183236	8.072487	12.183236
15.720000	13.280000	0.536418	12.648270	8.150590	12.648270
15.730000	13.800000	0.599185	13.135058	8.229232	13.135058
15.740000	14.640000	0.559784	13.643349	8.308415	13.643349
15.750000	15.520000	0.524487	14.172794	8.388140	14.172794
15.760000	15.070000	0.581085	14.722951	8.468409	14.722951
15.770000	15.950000	0.575329	15.293294	8.549225	15.293294
15.780000	16.320000	0.481139	15.883223	8.630589	15.883223
15.790000	16.560000	0.633051	16.492074	8.712504	16.492074
15.800000	17.210000	0.579623	17.119132	8.794970	17.119132
15.810000	17.530000	0.612584	17.763638	8.877991	17.763638
15.820000	18.920000	0.619284	18.424807	8.961567	18.424807
15.830000	19.350000	0.617809	19.101832	9.045701	19.101832
15.840000	20.800000	0.607216	19.793898	9.130394	19.793898
15.850000	20.590000	0.641262	20.500191	9.215650	20.500191
15.860000	22.960000	0.676125	21.219907	9.301468	21.219907
15.870000	21.650000	0.664997	21.952259	9.387852	21.952259
15.880000	23.930000	0.681545	22.696485	9.474803	22.696485
15.890000	22.970000	0.686566	23.451852	9.562324	23.451852
15.900000	25.390000	0.694856	24.217660	9.650415	24.217660
15.910000	24.480000	0.624729	24.993249	9.739080	24.993249
15.920000	25.950000	0.672229	25.777997	9.828319	25.777997
15.930000	27.200000	0.734907	26.571325	9.918135	26.571325
15.940000	26.890000	0.829573	27.372694	10.008530	27.372694
15.950000	28.410000	0.791577	28.181607	10.099505	28.181607
15.960000	29.040000	0.730229	28.997610	10.191063	28.997610
15.970000	29.720000	0.754726	29.820285	10.283205	29.820285
15.980000	31.720000	0.805764	30.649254	10.375933	30.649254
15.990000	31.120000	0.852600	31.484173	10.469250	31.484173
16.000000	31.270000	0.853420	32.324731	10.563157	32.324731
16.010000	32.710000	0.786811	33.170650	10.657655	33.170650
16.020000	32.280000	0.795997	34.021678	10.752748	34.021678
16.030000	33.970000	0.858316	34.877588	10.848436	34.877588
16.040000	34.010000	0.882320	35.738178	10.944722	35.738178
16.050000	33.870000	0.764238	36.603264	11.041607	36.603264
16.060000	34.530000	0.839188	37.472685	11.139094	37.472685
16.070000	36.400000	0.850203	38.346292	11.237185	38.346292
16.080000	38.030000	1.006466	39.223953	11.335880	39.223953
16.090000	39.440000	0.839708	40.105547	11.435183	40.105547
16.100000	38.440000	0.908013	40.990968	11.535095	40.990968
16.110000	40.810000	0.867609	41.880115	11.635618	41.880115
16.120000	41.230000	0.946908	42.772900	11.736754	42.772900
16.130000	42.330000	0.958780	43.669238	11.838504	43.669238
16.140000	42.120000	0.907496	44.569056	11.940872	44.569056
16.150000	42.890000	0.978077	45.472283	12.043857	45.472283
16.160000	45.650000	1.043881	46.378853	12.147464	46.378853
16.170000	45.370000	0.851485	47.288707	12.251692	47.288707
16.180000	48.470000	1.136453	48.201789	12.356545	48.201789
16.190000	48.520000	0.961930	49.118044	12.462024	49.118044
16.200000	48.550000	1.002201	50.037424	12.568132	50.037424
16.210000	51.090000	1.031002	50.959881	12.674869	50.959881
16.220000	51.130000	0.975508	51.885371	12.782238	51.885371
16.230000	50.280000	0.950701	52.813851	12.890241	52.813851
16.240000	53.090000	1.091964	53.745282	12.998879	53.745282
16.250000	54.680000	1.096553	54.679625	13.108155	54.679625
16.260000	53.200000	1.014385	55.616842	13.218071	55.616842
16.270000	55.890000	1.224750	56.556900	13.328628	56.556900
16.280000	55.030000	1.087748	57.499765	13.439829	57.499765
16.290000	57.950000	1.094625	58.445403	13.551674	58.445403
16.300000	59.160000	1.121946	59.393786	13.664167	59.393786
16.310000	58.840000	1.124478	60.344881	13.777308	60.344881
16.320000	61.690000	1.103971	61.298662	13.891101	61.298662
16.330000	59.890000	1.089715	62.255099	14.005546	62.255099
16.340000	62.840000	1.014257	63.214167	14.120646	63.214167
16.350000	64.450000	1.112219	64.175840	14.236403	64.175840
16.360000	63.150000	1.181088	65.140093	14.352818	65.140093
16.370000	67.160000	1.054644	66.106902	14.469893	66.106902
16.380000	66.280000	1.027797	67.076243	14.587631	67.076243
16.390000	66.010000	1.418543	68.048094	14.706033	68.048094
16.400000	68.730000	1.243424	69.022434	14.825101	69.022434
16.410000	70.950000	1.179785	69.999241	14.944838	69.999241
16.420000	69.800000	1.187303	70.978494	15.065244	70.978494
16.430000	73.440000	1.238080	71.960175	15.186321	71.960175
16.440000	74.320000	1.150394	72.944263	15.308073	72.944263
16.450000	74.530000	1.159259	73.930741	15.430500	73.930741
16.460000	76.960000	1.097183	74.919589	15.553605	74.919589
16.470000	76.970000	1.375692	75.910790	15.677389	75.910790
16.480000	78.010000	1.221947	76.904328	15.801854	76.904328
16.490000	76.790000	1.362207	77.900185	15.927003	77.900185
16.500000	78.440000	1.277897	78.898346	16.052836	78.898346
16.510000	82.600000	1.322187	79.898794	16.179357	79.898794
16.520000	79.520000	1.232548	80.901515	16.306567	80.901515
16.530000	81.830000	1.262229	81.906493	16.434467	81.906493
16.540000	83.570000	1.315695	82.913714	16.563060	82.913714
16.550000	85.410000	1.297320	83.923164	16.692348	83.923164
16.560000	87.190000	1.225231	84.934829	16.822333	84.934829
16.570000	85.270000	1.350084	85.948695	16.953015	85.948695
16.580000	90.250000	1.326958	86.964750	17.084398	86.964750
16.590000	90.280000	1.381404	87.982981	17.216483	87.982981
16.600000	91.590000	1.330303	89.003375	17.349273	89.003375
16.610000	91.250000	1.356800	90.025921	17.482768	90.025921
16.620000	92.750000	1.506200	91.050606	17.616972	91.050606
16.630000	95.920000	1.565504	92.077419	17.751885	92.077419
16.640000	95.800000	1.527089	93.106349	17.887510	93.106349
16.650000	96.640000	1.366172	94.137384	18.023848	94.137384
16.660000	96.050000	1.284845	95.170514	18.160902	95.170514
16.670000	98.070000	1.533440	96.205729	18.298673	96.205729
16.680000	98.550000	1.471132	97.243018	18.437164	97.243018
16.690000	99.970000	1.379725	98.282371	18.576376	98.282371
16.700000	103.500000	1.530454	99.323779	18.716311	99.323779
16.710000	104.300000	1.263932	100.367232	18.856971	100.367232
16.720000	103.600000	1.607604	101.412720	18.998358	101.412720
16.730000	106.700000	1.636178	102.460235	19.140474	102.460235
16.740000	105.700000	1.412961	103.509767	19.283321	103.509767
16.750000	106.700000	1.473214	104.561308	19.426900	104.561308
16.760000	106.900000	1.576797	105.614849	19.571214	105.614849
16.770000	114.200000	1.498438	106.670383	19.716264	106.670383
16.780000	109.700000	1.501020	107.727900	19.862053	107.727900
16.790000	110.800000	1.363812	108.787393	20.008582	108.787393
16.800000	111.800000	1.351812	109.848853	20.155853	109.848853
16.810000	116.400000	1.521555	110.912275	20.303867	110.912275
16.820000	112.200000	1.710615	111.977648	20.452628	111.977648
16.830000	115.500000	1.464597	113.044968	20.602137	113.044968
16.840000	116.700000	1.627807	114.114226	20.752396	114.114226
16.850000	116.100000	1.497867	115.185415	20.903406	115.185415
16.860000	119.200000	1.523633	116.258529	21.055169	116.258529
16.870000	116.800000	1.518116	117.333560	21.207689	117.333560
16.880000	121.800000	1.640591	118.410502	21.360965	118.410502
16.890000	122.000000	1.632285	119.489349	21.515001	119.489349
16.900000	122.300000	1.490400	120.570095	21.669798	120.570095
16.910000	122.200000	1.554114	121.652732	21.825357	121.652732
16.920000	123.400000	1.566352	122.737256	21.981682	122.737256
16.930000	125.800000	1.696779	123.823659	22.138774	123.823659
16.940000	126.600000	1.703993	124.911937	22.296634	124.911937
16.950000	125.200000	1.489781	126.002084	22.455265	126.002084
16.960000	126.900000	1.649403	127.094093	22.614669	127.094093
16.970000	129.600000	1.759050	128.187960	22.774847	128.187960
16.980000	129.100000	1.714408	129.283679	22.935802	129.283679
16.990000	130.400000	1.751119	130.381245	23.097534	130.381245
17.000000	128.100000	1.576696	131.480652	23.260047	131.480652
17.010000	133.800000	1.723413	132.581896	23.423342	132.581896
17.020000	134.800000	2.147147	133.684972	23.587421	133.684972
17.030000	133.000000	1.680079	134.789874	23.752286	134.789874
17.040000	137.200000	1.546988	135.896598	23.917938	135.896598
17.050000	135.100000	1.695562	137.005140	24.084380	137.005140
17.060000	139.200000	1.664660	138.115494	24.251614	138.115494
17.070000	137.400000	1.664516	139.227657	24.419641	139.227657
17.080000	140.400000	1.626481	140.341623	24.588463	140.341623
17.090000	141.700000	1.749533	141.457389	24.758083	141.457389
17.100000	139.000000	1.626858	142.574950	24.928502	142.574950
17.110000	144.600000	1.887912	143.694302	25.099722	143.694302
17.120000	141.200000	1.637103	144.815441	25.271745	144.815441
17.130000	143.800000	1.710137	145.938363	25.444573	145.938363
17.140000	148.800000	1.719462	147.063064	25.618207	147.063064
17.150000	145.000000	1.776063	148.189540	25.792650	148.189540
17.160000	147.600000	1.691400	149.317787	25.967904	149.317787
17.170000	148.300000	1.795083	150.447803	26.143971	150.447803
17.180000	151.600000	1.779018	151.579582	26.320851	151.579582
17.190000	153.300000	1.782267	152.713122	26.498548	152.713122
17.200000	150.100000	1.761907	153.848419	26.677063	153.848419
17.210000	151.000000	1.720129	154.985469	26.856398	154.985469
17.220000	152.800000	2.365357	156.124270	27.036555	156.124270
17.230000	155.200000	2.096287	157.264818	27.217536	157.264818
17.240000	157.100000	1.785745	158.407109	27.399343	158.407109
17.250000	158.300000	1.685819	159.551141	27.581978	159.551141
17.260000	160.500000	1.589179	160.696911	27.765442	160.696911
17.270000	162.800000	1.735578	161.844414	27.949737	161.844414
17.280000	157.600000	1.703017	162.993650	28.134866	162.993650
17.290000	159.400000	1.802610	164.144613	28.320830	164.144613
17.300000	164.400000	1.862844	165.297302	28.507631	165.297302
17.310000	166.400000	1.729832	166.451714	28.695272	166.451714
17.320000	165.100000	1.769132	167.607846	28.883753	167.607846
17.330000	167.900000	1.952879	168.765695	29.073077	168.765695
17.340000	167.000000	1.744655	169.925259	29.263246	169.925259
17.350000	170.000000	1.835938	171.086535	29.454262	171.086535
17.360000	172.000000	1.852038	172.249520	29.646126	172.249520
17.370000	171.500000	1.861391	173.414212	29.838841	173.414212
17.380000	174.700000	1.736611	174.580608	30.032408	174.580608
17.390000	177.000000	1.912183	175.748707	30.226830	175.748707
17.400000	174.800000	1.961949	176.918505	30.422107	176.918505
17.410000	177.000000	1.821233	178.090001	30.618243	178.090001
17.420000	179.800000	1.918235	179.263192	30.815239	179.263192
17.430000	175.100000	1.823051	180.438075	31.013096	180.438075
17.440000	184.900000	1.860794	181.614650	31.211818	181.614650
17.450000	182.200000	1.980523	182.792913	31.411405	182.792913
17.460000	183.200000	1.887625	183.972862	31.611859	183.972862
17.470000	188.100000	1.973976	185.154496	31.813184	185.154496
17.480000	185.900000	1.844664	186.337812	32.015379	186.337812
17.490000	192.100000	2.095403	187.522808	32.218448	187.522808
17.500000	189.200000	1.815675	188.709483	32.422392	188.709483
17.510000	192.700000	1.880547	189.897835	32.627213	189.897835
17.520000	194.200000	1.877260	191.087861	32.832913	191.087861
17.530000	192.800000	2.062551	192.279561	33.039494	192.279561
17.540000	195.700000	1.985045	193.472931	33.246958	193.472931
17.550000	194.700000	2.035157	194.667971	33.455307	194.667971
17.560000	198.300000	1.986066	195.864678	33.664542	195.864678
17.570000	198.300000	1.798709	197.063052	33.874665	197.063052
17.580000	200.200000	2.027171	198.263090	34.085679	198.263090
17.590000	202.600000	2.114395	199.464791	34.297586	199.464791
17.600000	203.900000	2.015887	200.668153	34.510386	200.668153
17.610000	203.500000	2.170934	201.873175	34.724083	201.873175
17.620000	205.100000	2.136788	203.079855	34.938677	203.079855
17.630000	207.800000	1.884331	204.288191	35.154172	204.288191
17.640000	210.200000	2.585563	205.498183	35.370568	205.498183
17.650000	214.600000	2.157311	206.709829	35.587868	206.709829
17.660000	207.300000	2.341106	207.923128	35.806074	207.923128
17.670000	213.900000	2.023694	209.138078	36.025187	209.138078
17.680000	213.300000	2.148243	210.354678	36.245210	210.354678
17.690000	217.000000	1.989819	211.572926	36.466144	211.572926
17.700000	217.900000	2.226406	212.792822	36.687991	212.792822
17.710000	218.400000	2.007010	214.014364	36.910753	214.014364
17.720000	221.800000	2.251759	215.237551	37.134432	215.237551
17.730000	224.600000	1.880251	216.462382	37.359030	216.462382
17.740000	218.000000	2.197210	217.688855	37.584549	217.688855
17.750000	224.200000	2.037790	218.916970	37.810991	218.916970
17.760000	224.700000	2.071164	220.146726	38.038357	220.146726
17.770000	223.600000	2.234358	221.378121	38.266650	221.378121
17.780000	227.800000	2.034402	222.611154	38.495871	222.611154
17.790000	229.900000	2.284089	223.845825	38.726023	223.845825
17.800000	232.500000	2.138489	225.082133	38.957106	225.082133
17.810000	231.600000	2.225876	226.320076	39.189124	226.320076
17.820000	234.100000	2.319899	227.559654	39.422078	227.559654
17.830000	232.300000	2.465653	228.800865	39.655970	228.800865
17.840000	235.100000	2.144014	230.043709	39.890802	230.043709
17.850000	240.000000	2.183412	231.288185	40.126575	231.288185
17.860000	243.700000	2.403315	232.534292	40.363292	232.534292
17.870000	243.800000	2.197061	233.782030	40.600955	233.782030
17.880000	242.400000	2.150787	235.031397	40.839564	235.031397
17.890000	241.200000	2.138594	236.282393	41.079124	236.282393
17.900000	246.100000	2.144665	237.535017	41.319634	237.535017
17.910000	254.000000	2.320306	238.789269	41.561098	238.789269
17.920000	248.100000	2.304418	240.045147	41.803516	240.045147
17.930000	245.900000	2.092848	241.302651	42.046892	241.302651
17.940000	249.600000	2.320176	242.561781	42.291226	242.561781
17.950000	256.500000	2.274120	243.822535	42.536522	243.822535
17.960000	250.700000	2.373460	245.084914	42.782779	245.084914
17.970000	253.400000	2.256869	246.348916	43.030002	246.348916
17.980000	259.000000	3.768867	247.614541	43.278190	247.614541
17.990000	264.200000	2.353320	248.881789	43.527347	248.881789
18.000000	259.300000	2.306616	250.150658	43.777475	250.150658
18.010000	260.300000	2.383132	251.421149	44.028574	251.421149
18.020000	268.300000	3.308214	252.693261	44.280648	252.693261
18.030000	264.500000	2.443436	253.966993	44.533697	253.966993
18.040000	268.800000	2.391682	255.242345	44.787724	255.242345
18.050000	268.000000	2.324784	256.519317	45.042731	256.519317
18.060000	270.900000	2.447641	257.797908	45.298720	257.797908
18.070000	270.000000	2.265921	259.078118	45.555692	259.078118
18.080000	269.400000	2.242883	260.359946	45.813650	260.359946
18.090000	275.100000	2.332349	261.643393	46.072595	261.643393
18.100000	272.500000	2.344843	262.928457	46.332529	262.928457
18.110000	275.700000	2.558961	264.215138	46.593454	264.215138
18.120000	273.900000	2.141384	265.503437	46.855373	265.503437
18.130000	276.900000	2.257514	266.793352	47.118286	266.793352
18.140000	281.300000	2.341953	268.084884	47.382196	268.084884
18.150000	284.000000	2.446767	269.378032	47.647105	269.378032
18.160000	282.300000	2.498500	270.672796	47.913015	270.672796
18.170000	284.500000	2.340461	271.969176	48.179927	271.969176
18.180000	286.600000	2.268920	273.267172	48.447844	273.267172
18.190000	293.300000	2.783442	274.566783	48.716766	274.566783
18.200000	287.500000	3.391607	275.868009	48.986698	275.868009
18.210000	290.300000	2.338044	277.170850	49.257639	277.170850
18.220000	291.400000	2.244753	278.475307	49.529592	278.475307
18.230000	295.400000	2.441417	279.781378	49.802560	279.781378
18.240000	297.800000	2.428318	281.089063	50.076543	281.089063
18.250000	300.600000	2.265706	282.398364	50.351544	282.398364
18.260000	295.800000	2.352988	283.709279	50.627565	283.709279
18.270000	299.500000	2.573398	285.021808	50.904607	285.021808
18.280000	306.400000	2.386249	286.335951	51.182672	286.335951
18.290000	303.900000	2.379202	287.651709	51.461763	287.651709
18.300000	313.000000	2.410256	288.969082	51.741882	288.969082
18.310000	305.300000	2.502386	290.288068	52.023029	290.288068
18.320000	305.500000	2.539829	291.608669	52.305208	291.608669
18.330000	309.000000	2.555882	292.930884	52.588419	292.930884
18.340000	315.000000	2.357682	294.254714	52.872665	294.254714
18.350000	312.300000	2.741081	295.580158	53.157948	295.580158
18.360000	311.800000	2.295112	296.907216	53.444270	296.907216
18.370000	314.200000	2.619934	298.235888	53.731632	298.235888
18.380000	316.700000	2.465375	299.566176	54.020037	299.566176
18.390000	318.900000	2.558725	300.898078	54.309486	300.898078
18.400000	318.300000	2.390707	302.231594	54.599982	302.231594
18.410000	325.000000	2.402351	303.566726	54.891525	303.566726
18.420000	326.900000	3.011412	304.903472	55.184119	304.903472
18.430000	331.700000	3.478630	306.241834	55.477765	306.241834
18.440000	330.100000	2.795891	307.581810	55.772464	307.581810
18.450000	327.900000	2.784068	308.923403	56.068219	308.923403
18.460000	333.800000	2.692577	310.266610	56.365032	310.266610
18.470000	331.900000	2.517557	311.611434	56.662905	311.611434
18.480000	331.900000	2.589918	312.957874	56.961839	312.957874
18.490000	334.700000	2.543886	314.305929	57.261836	314.305929
18.500000	336.400000	2.947385	315.655601	57.562899	315.655601
18.510000	333.400000	2.446014	317.006890	57.865029	317.006890
18.520000	337.700000	2.877186	318.359796	58.168228	318.359796
18.530000	336.700000	2.615012	319.714319	58.472498	319.714319
18.540000	341.600000	2.671729	321.070459	58.777840	321.070459
18.550000	344.800000	2.827736	322.428217	59.084258	322.428217
18.560000	345.300000	2.689207	323.787593	59.391752	323.787593
18.570000	345.600000	2.421599	325.148587	59.700325	325.148587
18.580000	355.700000	2.803010	326.511199	60.009978	326.511199
18.590000	347.900000	2.745840	327.875431	60.320714	327.875431
18.600000	352.000000	2.491622	329.241281	60.632534	329.241281
18.610000	356.600000	2.967351	330.608751	60.945440	330.608751
18.620000	355.100000	2.458288	331.977841	61.259434	331.977841
18.630000	360.000000	2.763669	333.348552	61.574518	333.348552
18.640000	359.200000	2.776485	334.720882	61.890695	334.720882
18.650000	368.500000	3.175388	336.094834	62.207964	336.094834
18.660000	364.800000	3.247711	337.470407	62.526330	337.470407
18.670000	363.600000	2.953603	338.847602	62.845793	338.847602
18.680000	366.400000	2.897729	340.226419	63.166356	340.226419
18.690000	366.300000	2.602224	341.606859	63.488020	341.606859
18.700000	371.600000	2.875670	342.988921	63.810787	342.988921
18.710000	369.600000	2.820818	344.372607	64.134660	344.372607
18.720000	374.800000	2.854641	345.757917	64.459640	345.757917
18.730000	378.800000	2.781347	347.144851	64.785728	347.144851
18.740000	376.600000	2.791438	348.533410	65.112928	348.533410
18.750000	376.900000	2.712105	349.923594	65.441240	349.923594
18.760000	382.900000	2.612023	351.315403	65.770667	351.315403
18.770000	385.700000	2.845812	352.708839	66.101211	352.708839
18.780000	385.500000	2.832569	354.103902	66.432873	354.103902
18.790000	387.300000	2.971356	355.500591	66.765656	355.500591
18.800000	387.400000	4.175158	356.898909	67.099560	356.898909
18.810000	389.900000	2.900019	358.298854	67.434589	358.298854
18.820000	393.900000	2.819607	359.700429	67.770745	359.700429
18.830000	391.400000	2.813362	361.103632	68.108028	361.103632
18.840000	392.600000	2.864734	362.508465	68.446441	362.508465
18.850000	397.700000	2.457492	363.914929	68.785986	363.914929
18.860000	393.700000	2.532866	365.323023	69.126664	365.323023
18.870000	400.600000	3.110707	366.732749	69.468478	366.732749
18.880000	398.300000	2.834561	368.144107	69.811430	368.144107
18.890000	403.300000	2.860026	369.557098	70.155521	369.557098
18.900000	403.700000	2.871660	370.971722	70.500754	370.971722
18.910000	407.200000	3.105957	372.387979	70.847129	372.387979
18.920000	410.300000	2.808706	373.805871	71.194650	373.805871
18.930000	409.900000	2.839029	375.225398	71.543318	375.225398
18.940000	413.800000	2.954623	376.646561	71.893134	376.646561
18.950000	419.700000	2.837698	378.069360	72.244102	378.069360
18.960000	416.900000	3.160345	379.493796	72.596222	379.493796
18.970000	420.500000	2.875996	380.919869	72.949497	380.919869
18.980000	422.900000	3.168141	382.347580	73.303928	382.347580
18.990000	423.800000	3.065214	383.776931	73.659518	383.776931
19.000000	421.000000	2.845831	385.207921	74.016268	385.207921
19.010000	424.600000	3.071194	386.640550	74.374180	386.640550
19.020000	427.000000	2.803347	388.074821	74.733257	388.074821
19.030000	424.000000	3.063883	389.510734	75.093499	389.510734
19.040000	431.800000	2.864933	390.948288	75.454910	390.948288
19.050000	432.700000	3.029622	392.387485	75.817490	392.387485
19.060000	436.500000	2.827700	393.828326	76.181242	393.828326
19.070000	431.700000	3.071074	395.270812	76.546167	395.270812
19.080000	433.500000	2.876043	396.714942	76.912268	396.714942
19.090000	441.100000	2.951422	398.160718	77.279547	398.160718
19.100000	436.100000	2.880873	399.608141	77.648004	399.608141
19.110000	446.800000	2.963979	401.057210	78.017643	401.057210
19.120000	443.600000	3.204941	402.507928	78.388466	402.507928
19.130000	447.600000	3.226848	403.960294	78.760473	403.960294
19.140000	451.600000	3.018915	405.414310	79.133667	405.414310
19.150000	451.700000	2.970018	406.869976	79.508050	406.869976
19.160000	454.100000	3.136248	408.327293	79.883623	408.327293
19.170000	454.000000	2.958678	409.786262	80.260390	409.786262
19.180000	457.200000	3.294915	411.246883	80.638351	411.246883
19.190000	455.900000	3.345194	412.709158	81.017508	412.709158
19.200000	462.800000	2.536020	414.173086	81.397864	414.173086
19.210000	458.000000	3.313139	415.638670	81.779419	415.638670
19.220000	468.000000	3.122051	417.105909	82.162177	417.105909
19.230000	466.500000	3.377465	418.574805	82.546139	418.574805
19.240000	473.500000	2.968378	420.045358	82.931307	420.045358
19.250000	470.200000	3.224404	421.517569	83.317683	421.517569
19.260000	474.300000	2.797226	422.991439	83.705269	422.991439
19.270000	471.100000	3.078628	424.466969	84.094066	424.466969
19.280000	472.000000	3.267483	425.944159	84.484077	425.944159
19.290000	481.100000	2.912748	427.423011	84.875303	427.423011
19.300000	477.500000	3.544181	428.903526	85.267746	428.903526
19.310000	486.100000	3.269413	430.385703	85.661409	430.385703
19.320000	484.200000	3.197607	431.869544	86.056293	431.869544
19.330000	486.500000	3.405861	433.355051	86.452400	433.355051
19.340000	483.500000	3.184305	434.842223	86.849732	434.842223
19.350000	496.800000	3.243745	436.331061	87.248290	436.331061
19.360000	488.900000	2.947631	437.821568	87.648078	437.821568
19.370000	495.500000	3.343315	439.313742	88.049096	439.313742
19.380000	494.700000	2.879999	440.807586	88.451347	440.807586
19.390000	495.800000	3.237060	442.303100	88.854832	442.303100
19.400000	500.400000	3.448279	443.800285	89.259553	443.800285
19.410000	509.100000	5.224232	445.299142	89.665513	445.299142
19.420000	512.500000	3.555675	446.799671	90.072713	446.799671
19.430000	516.600000	3.238653	448.301875	90.481155	448.301875
19.440000	504.800000	3.067014	449.805753	90.890841	449.805753
19.450000	512.700000	3.205392	451.311307	91.301773	451.311307
19.460000	504.900000	3.012474	452.818537	91.713952	452.818537
19.470000	509.400000	3.179330	454.327445	92.127381	454.327445
19.480000	513.200000	3.545278	455.838031	92.542062	455.838031
19.490000	516.800000	3.173109	457.350297	92.957996	457.350297
19.500000	519.500000	3.303597	458.864243	93.375186	458.864243
19.510000	525.400000	2.950167	460.379870	93.793633	460.379870
19.520000	526.800000	3.171607	461.897180	94.213339	461.897180
19.530000	529.400000	3.572246	463.416172	94.634306	463.416172
19.540000	533.900000	5.073364	464.936849	95.056536	464.936849
19.550000	526.500000	4.167235	466.459211	95.480030	466.459211
19.560000	526.800000	3.676264	467.983259	95.904792	467.983259
19.570000	536.500000	3.034699	469.508994	96.330822	469.508994
19.580000	535.500000	3.108465	471.036416	96.758123	471.036416
19.590000	546.000000	6.787335	472.565528	97.186697	472.565528
19.600000	544.200000	4.268914	474.096331	97.616544	474.096331
19.610000	542.500000	3.682098	475.628824	98.047668	475.628824
19.620000	548.700000	3.342783	477.163009	98.480070	477.163009
19.630000	547.300000	3.862632	478.698887	98.913753	478.698887
19.640000	545.700000	3.317551	480.236459	99.348717	480.236459
19.650000	558.200000	3.658826	481.775726	99.784965	481.775726
19.660000	551.700000	3.469081	483.316689	100.222499	483.316689
19.670000	556.400000	3.351678	484.859349	100.661320	484.859349
19.680000	547.900000	3.428577	486.403708	101.101431	486.403708
19.690000	563.300000	3.454161	487.949765	101.542834	487.949765
19.700000	572.900000	3.729462	489.497523	101.985530	489.497523
19.710000	564.300000	3.224227	491.046982	102.429521	491.046982
19.720000	572.300000	3.241604	492.598143	102.874809	492.598143
19.730000	576.500000	3.148809	494.151007	103.321397	494.151007
19.740000	573.400000	3.474297	495.705576	103.769285	495.705576
19.750000	568.900000	3.195963	497.261850	104.218476	497.261850
19.760000	576.300000	3.527519	498.819831	104.668972	498.819831
19.770000	573.600000	3.552757	500.379519	105.120775	500.379519
19.780000	581.600000	5.543631	501.940915	105.573887	501.940915
19.790000	581.000000	4.262988	503.504021	106.028308	503.504021
19.800000	586.500000	3.709852	505.068838	106.484043	505.068838
