# Energy shift = 0.78
# a_1: -2.326 +- 0.028, a_0: 0.2 +- 1.4, domain: [10.78eV ,12.75eV]
# Y-offset = 0.01+-0.0124, AE = 12.9221+-0.0637, Scale Factor = 2.4616+-0.4156, Alpha = 2.5+-0.1688
# Y-offset = 0.01+-0.0279, AE = 14.1929+-0.0431, Scale Factor = 11.6779+-1.2235, Alpha = 2.2797+-0.1078
# -------------------------------------------------------------
Energy	Counts	Errors	Combined Fit	Fit 1	Fit 2(incl. prev.)	Fit 3(incl. prev.)
10.780000	23.040000	9.348711	0.005336	-0.014664	-0.004664	0.005336
10.790000	0.080000	0.391918	0.007480	-0.012520	-0.002520	0.007480
10.800000	0.026670	0.229395	0.009625	-0.010375	-0.000375	0.009625
10.810000	0.106700	0.555538	0.011769	-0.008231	0.001769	0.011769
10.820000	0.106700	0.555538	0.013913	-0.006087	0.003913	0.013913
10.830000	0.053330	0.322215	0.016057	-0.003943	0.006057	0.016057
10.840000	0.133300	0.596285	0.018201	-0.001799	0.008201	0.018201
10.850000	0.133300	0.679869	0.020346	0.000346	0.010346	0.020346
10.860000	0.000000	0.000000	0.022490	0.002490	0.012490	0.022490
10.870000	0.053330	0.322215	0.024634	0.004634	0.014634	0.024634
10.880000	0.053330	0.322215	0.026778	0.006778	0.016778	0.026778
10.890000	0.133300	0.679869	0.028922	0.008922	0.018922	0.028922
10.900000	0.133300	0.679869	0.031067	0.011067	0.021067	0.031067
10.910000	0.133300	0.498888	0.033211	0.013211	0.023211	0.033211
10.920000	0.106700	0.555538	0.035355	0.015355	0.025355	0.035355
10.930000	0.053330	0.458791	0.037499	0.017499	0.027499	0.037499
10.940000	0.106700	0.555538	0.039643	0.019643	0.029643	0.039643
10.950000	0.133300	0.596285	0.041788	0.021788	0.031788	0.041788
10.960000	0.026670	0.229395	0.043932	0.023932	0.033932	0.043932
10.970000	0.106700	0.449395	0.046076	0.026076	0.036076	0.046076
10.980000	0.106700	0.555538	0.048220	0.028220	0.038220	0.048220
10.990000	0.213300	0.898789	0.050365	0.030365	0.040365	0.050365
11.000000	0.026670	0.229395	0.052509	0.032509	0.042509	0.052509
11.010000	0.133300	0.596285	0.054653	0.034653	0.044653	0.054653
11.020000	0.053330	0.322215	0.056797	0.036797	0.046797	0.056797
11.030000	0.186700	0.742847	0.058941	0.038941	0.048941	0.058941
11.040000	0.133300	0.596285	0.061086	0.041086	0.051086	0.061086
11.050000	0.080000	0.510163	0.063230	0.043230	0.053230	0.063230
11.060000	0.186700	0.742847	0.065374	0.045374	0.055374	0.065374
11.070000	0.133300	0.596285	0.067518	0.047518	0.057518	0.067518
11.080000	0.053330	0.322215	0.069662	0.049662	0.059662	0.069662
11.090000	0.106700	0.555538	0.071807	0.051807	0.061807	0.071807
11.100000	0.026670	0.229395	0.073951	0.053951	0.063951	0.073951
11.110000	0.160000	0.633298	0.076095	0.056095	0.066095	0.076095
11.120000	0.026670	0.229395	0.078239	0.058239	0.068239	0.078239
11.130000	0.080000	0.510163	0.080383	0.060383	0.070383	0.080383
11.140000	0.053330	0.322215	0.082528	0.062528	0.072528	0.082528
11.150000	0.160000	0.633298	0.084672	0.064672	0.074672	0.084672
11.160000	0.026670	0.229395	0.086816	0.066816	0.076816	0.086816
11.170000	0.053330	0.458791	0.088960	0.068960	0.078960	0.088960
11.180000	0.160000	0.633298	0.091104	0.071104	0.081104	0.091104
11.190000	0.133300	0.754247	0.093249	0.073249	0.083249	0.093249
11.200000	0.026670	0.229395	0.095393	0.075393	0.085393	0.095393
11.210000	0.133300	0.596285	0.097537	0.077537	0.087537	0.097537
11.220000	0.160000	0.633298	0.099681	0.079681	0.089681	0.099681
11.230000	0.106700	0.449395	0.101825	0.081825	0.091825	0.101825
11.240000	0.000000	0.000000	0.103970	0.083970	0.093970	0.103970
11.250000	0.026670	0.229395	0.106114	0.086114	0.096114	0.106114
11.260000	0.133300	0.596285	0.108258	0.088258	0.098258	0.108258
11.270000	0.186700	0.667200	0.110402	0.090402	0.100402	0.110402
11.280000	0.186700	0.667200	0.112546	0.092546	0.102546	0.112546
11.290000	0.026670	0.229395	0.114691	0.094691	0.104691	0.114691
11.300000	0.106700	0.555538	0.116835	0.096835	0.106835	0.116835
11.310000	0.106700	0.449395	0.118979	0.098979	0.108979	0.118979
11.320000	0.133300	0.596285	0.121123	0.101123	0.111123	0.121123
11.330000	0.266700	0.884433	0.123267	0.103267	0.113267	0.123267
11.340000	0.080000	0.510163	0.125412	0.105412	0.115412	0.125412
11.350000	0.400000	1.306395	0.127556	0.107556	0.117556	0.127556
11.360000	0.266700	0.821922	0.129700	0.109700	0.119700	0.129700
11.370000	0.160000	0.633298	0.131844	0.111844	0.121844	0.131844
11.380000	0.240000	0.727370	0.133988	0.113988	0.123988	0.133988
11.390000	0.133300	0.596285	0.136133	0.116133	0.126133	0.136133
11.400000	0.213300	0.837350	0.138277	0.118277	0.128277	0.138277
11.410000	0.133300	0.596285	0.140421	0.120421	0.130421	0.140421
11.420000	0.266700	0.942809	0.142565	0.122565	0.132565	0.142565
11.430000	0.106700	0.449395	0.144709	0.124709	0.134709	0.144709
11.440000	0.106700	0.555538	0.146854	0.126854	0.136854	0.146854
11.450000	0.160000	0.633298	0.148998	0.128998	0.138998	0.148998
11.460000	0.266700	0.942809	0.151142	0.131142	0.141142	0.151142
11.470000	0.106700	0.555538	0.153286	0.133286	0.143286	0.153286
11.480000	0.186700	0.667200	0.155431	0.135431	0.145431	0.155431
11.490000	0.133300	0.498888	0.157575	0.137575	0.147575	0.157575
11.500000	0.213300	0.698443	0.159719	0.139719	0.149719	0.159719
11.510000	0.106700	0.449395	0.161863	0.141863	0.151863	0.161863
11.520000	0.160000	0.542586	0.164007	0.144007	0.154007	0.164007
11.530000	0.266700	0.754247	0.166152	0.146152	0.156152	0.166152
11.540000	0.240000	0.861626	0.168296	0.148296	0.158296	0.168296
11.550000	0.106700	0.449395	0.170440	0.150440	0.160440	0.170440
11.560000	0.133300	0.596285	0.172584	0.152584	0.162584	0.172584
11.570000	0.080000	0.510163	0.174728	0.154728	0.164728	0.174728
11.580000	0.400000	1.032796	0.176873	0.156873	0.166873	0.176873
11.590000	0.106700	0.722465	0.179017	0.159017	0.169017	0.179017
11.600000	0.080000	0.510163	0.181161	0.161161	0.171161	0.181161
11.610000	0.133300	0.596285	0.183305	0.163305	0.173305	0.183305
11.620000	0.453300	1.407535	0.185449	0.165449	0.175449	0.185449
11.630000	0.106700	0.449395	0.187594	0.167594	0.177594	0.187594
11.640000	0.106700	0.555538	0.189738	0.169738	0.179738	0.189738
11.650000	0.266700	0.884433	0.191882	0.171882	0.181882	0.191882
11.660000	0.320000	0.926067	0.194026	0.174026	0.184026	0.194026
11.670000	0.320000	0.981971	0.196170	0.176170	0.186170	0.196170
11.680000	0.213300	0.698443	0.198315	0.178315	0.188315	0.198315
11.690000	0.186700	0.742847	0.200459	0.180459	0.190459	0.200459
11.700000	0.240000	0.727370	0.202603	0.182603	0.192603	0.202603
11.710000	0.240000	0.797329	0.204747	0.184747	0.194747	0.204747
11.720000	0.160000	0.633298	0.206891	0.186891	0.196891	0.206891
11.730000	0.266700	0.754247	0.209036	0.189036	0.199036	0.209036
11.740000	0.133300	0.596285	0.211180	0.191180	0.201180	0.211180
11.750000	0.213300	0.771031	0.213324	0.193324	0.203324	0.213324
11.760000	0.213300	0.617378	0.215468	0.195468	0.205468	0.215468
11.770000	0.320000	1.085173	0.217612	0.197612	0.207612	0.217612
11.780000	0.213300	0.771031	0.219757	0.199757	0.209757	0.219757
11.790000	0.480000	1.215017	0.221901	0.201901	0.211901	0.221901
11.800000	0.133300	0.498888	0.224045	0.204045	0.214045	0.224045
11.810000	0.213300	0.698443	0.226189	0.206189	0.216189	0.226189
11.820000	0.186700	0.667200	0.228333	0.208333	0.218333	0.228333
11.830000	0.186700	0.742847	0.230478	0.210478	0.220478	0.230478
11.840000	0.106700	0.555538	0.232622	0.212622	0.222622	0.232622
11.850000	0.373300	1.016836	0.234766	0.214766	0.224766	0.234766
11.860000	0.266700	0.821922	0.236910	0.216910	0.226910	0.236910
11.870000	0.266700	0.679869	0.239054	0.219054	0.229054	0.239054
11.880000	0.186700	0.874732	0.241199	0.221199	0.231199	0.241199
11.890000	0.133300	0.498888	0.243343	0.223343	0.233343	0.243343
11.900000	0.213300	0.898789	0.245487	0.225487	0.235487	0.245487
11.910000	0.373300	0.962958	0.247631	0.227631	0.237631	0.247631
11.920000	0.453300	0.956289	0.249776	0.229776	0.239776	0.249776
11.930000	0.346700	0.886842	0.251920	0.231920	0.241920	0.251920
11.940000	0.346700	0.945069	0.254064	0.234064	0.244064	0.254064
11.950000	0.160000	0.712554	0.256208	0.236208	0.246208	0.256208
11.960000	0.186700	0.742847	0.258352	0.238352	0.248352	0.258352
11.970000	0.320000	1.085173	0.260497	0.240497	0.250497	0.260497
11.980000	0.160000	0.542586	0.262641	0.242641	0.252641	0.262641
11.990000	0.293300	0.905882	0.264785	0.244785	0.254785	0.264785
12.000000	0.293300	1.016836	0.266929	0.246929	0.256929	0.266929
12.010000	0.266700	0.884433	0.269073	0.249073	0.259073	0.269073
12.020000	0.266700	0.754247	0.271218	0.251218	0.261218	0.271218
12.030000	0.560000	1.407030	0.273362	0.253362	0.263362	0.273362
12.040000	0.133300	0.498888	0.275506	0.255506	0.265506	0.275506
12.050000	0.320000	1.266596	0.277650	0.257650	0.267650	0.277650
12.060000	0.240000	0.797329	0.279794	0.259794	0.269794	0.279794
12.070000	0.346700	1.101433	0.281939	0.261939	0.271939	0.281939
12.080000	0.346700	0.945069	0.284083	0.264083	0.274083	0.284083
12.090000	0.213300	0.771031	0.286227	0.266227	0.276227	0.286227
12.100000	0.266700	0.942809	0.288371	0.268371	0.278371	0.288371
12.110000	0.480000	1.215017	0.290515	0.270515	0.280515	0.290515
12.120000	0.320000	0.866564	0.292660	0.272660	0.282660	0.292660
12.130000	0.320000	0.926067	0.294804	0.274804	0.284804	0.294804
12.140000	0.346700	0.945069	0.296948	0.276948	0.286948	0.296948
12.150000	0.133300	0.596285	0.299092	0.279092	0.289092	0.299092
12.160000	0.160000	0.542586	0.301236	0.281236	0.291236	0.301236
12.170000	0.213300	0.771031	0.303381	0.283381	0.293381	0.303381
12.180000	0.320000	0.926067	0.305525	0.285525	0.295525	0.305525
12.190000	0.320000	0.926067	0.307669	0.287669	0.297669	0.307669
12.200000	0.240000	0.797329	0.309813	0.289813	0.299813	0.309813
12.210000	0.160000	0.633298	0.311957	0.291957	0.301957	0.311957
12.220000	0.453300	1.061990	0.314102	0.294102	0.304102	0.314102
12.230000	0.160000	0.633298	0.316246	0.296246	0.306246	0.316246
12.240000	0.320000	0.866564	0.318390	0.298390	0.308390	0.318390
12.250000	0.453300	1.111076	0.320534	0.300534	0.310534	0.320534
12.260000	0.293300	0.962958	0.322678	0.302678	0.312678	0.322678
12.270000	0.480000	1.123803	0.324823	0.304823	0.314823	0.324823
12.280000	0.320000	0.866564	0.326967	0.306967	0.316967	0.326967
12.290000	0.346700	1.051898	0.329111	0.309111	0.319111	0.329111
12.300000	0.426700	1.318315	0.331255	0.311255	0.321255	0.331255
12.310000	0.266700	0.821922	0.333399	0.313399	0.323399	0.333399
12.320000	0.346700	0.886842	0.335544	0.315544	0.325544	0.335544
12.330000	0.346700	1.051898	0.337688	0.317688	0.327688	0.337688
12.340000	0.560000	1.202664	0.339832	0.319832	0.329832	0.339832
12.350000	0.613300	1.565404	0.341976	0.321976	0.331976	0.341976
12.360000	0.400000	0.979796	0.344121	0.324121	0.334121	0.344121
12.370000	0.213300	0.617378	0.346265	0.326265	0.336265	0.346265
12.380000	0.320000	1.179378	0.348409	0.328409	0.338409	0.348409
12.390000	0.480000	1.024500	0.350553	0.330553	0.340553	0.350553
12.400000	0.400000	0.979796	0.352697	0.332697	0.342697	0.352697
12.410000	0.506700	1.226087	0.354842	0.334842	0.344842	0.354842
12.420000	0.293300	0.962958	0.356986	0.336986	0.346986	0.356986
12.430000	0.240000	0.861626	0.359130	0.339130	0.349130	0.359130
12.440000	0.453300	1.010522	0.361274	0.341274	0.351274	0.361274
12.450000	0.586700	1.167257	0.363418	0.343418	0.353418	0.363418
12.460000	0.613300	1.176360	0.365563	0.345563	0.355563	0.365563
12.470000	0.320000	0.926067	0.367707	0.347707	0.357707	0.367707
12.480000	0.453300	1.203255	0.369851	0.349851	0.359851	0.369851
12.490000	0.586700	1.337593	0.371995	0.351995	0.361995	0.371995
12.500000	0.293300	0.844959	0.374139	0.354139	0.364139	0.374139
12.510000	0.240000	0.797329	0.376284	0.356284	0.366284	0.376284
12.520000	0.346700	0.824513	0.378428	0.358428	0.368428	0.378428
12.530000	0.480000	1.024500	0.380572	0.360572	0.370572	0.380572
12.540000	0.293300	0.779287	0.382716	0.362716	0.372716	0.382716
12.550000	0.480000	1.075298	0.384860	0.364860	0.374860	0.384860
12.560000	0.506700	1.181788	0.387005	0.367005	0.377005	0.387005
12.570000	0.426700	1.190779	0.389149	0.369149	0.379149	0.389149
12.580000	0.266700	0.884433	0.391293	0.371293	0.381293	0.391293
12.590000	0.560000	1.329060	0.393437	0.373437	0.383437	0.393437
12.600000	0.480000	1.170299	0.395581	0.375581	0.385581	0.395581
12.610000	0.666700	1.398412	0.397726	0.377726	0.387726	0.397726
12.620000	0.533300	1.146977	0.399870	0.379870	0.389870	0.399870
12.630000	0.586700	1.255318	0.402014	0.382014	0.392014	0.402014
12.640000	0.613300	1.384614	0.404159	0.384158	0.394159	0.404159
12.650000	0.400000	1.083205	0.406303	0.386302	0.396303	0.406303
12.660000	0.666700	1.543445	0.408448	0.388447	0.398448	0.408448
12.670000	0.640000	1.228983	0.410593	0.390591	0.400593	0.410593
12.680000	0.746700	1.415093	0.412739	0.392735	0.402739	0.412739
12.690000	0.693300	1.441974	0.414885	0.394879	0.404885	0.414885
12.700000	0.506700	1.310199	0.417033	0.397023	0.407033	0.417033
12.710000	0.693300	1.441974	0.419182	0.399168	0.409182	0.419182
12.720000	0.480000	1.123803	0.421333	0.401312	0.411333	0.421333
12.730000	0.746700	1.337593	0.423487	0.403456	0.413487	0.423487
12.740000	0.453300	1.010522	0.425645	0.405600	0.415645	0.425645
12.750000	0.773300	1.492857	0.427809	0.407744	0.417809	0.427809
12.760000	0.346700	0.824513	0.429981	0.409889	0.419981	0.429981
12.770000	0.666700	1.472715	0.432164	0.412033	0.422164	0.432164
12.780000	0.773300	1.693701	0.434361	0.414177	0.424361	0.434361
12.790000	0.693300	1.404501	0.436576	0.416321	0.426576	0.436576
12.800000	0.613300	1.130113	0.438815	0.418465	0.428815	0.438815
12.810000	0.720000	1.717052	0.441085	0.420610	0.431085	0.441085
12.820000	0.880000	1.469331	0.443394	0.422754	0.433394	0.443394
12.830000	0.453300	1.158083	0.445752	0.424898	0.435752	0.445752
12.840000	0.666700	1.236482	0.448171	0.427042	0.438171	0.448171
12.850000	0.560000	1.202664	0.450664	0.429187	0.440664	0.450664
12.860000	0.613300	1.130113	0.453247	0.431331	0.443247	0.453247
12.870000	1.093000	1.471266	0.455940	0.433475	0.445940	0.455940
12.880000	0.773300	1.260406	0.458762	0.435619	0.448762	0.458762
12.890000	0.720000	1.114271	0.461737	0.437763	0.451737	0.461737
12.900000	0.693300	1.199704	0.464891	0.439908	0.454891	0.464891
12.910000	0.800000	1.531883	0.468252	0.442052	0.458252	0.468252
12.920000	0.800000	1.531883	0.471850	0.444196	0.461850	0.471850
12.930000	0.613300	1.263786	0.475718	0.446340	0.465718	0.475718
12.940000	0.666700	1.359739	0.479891	0.448484	0.469891	0.479891
12.950000	1.040000	1.578523	0.484405	0.450629	0.474405	0.484405
12.960000	0.853300	1.502827	0.489299	0.452773	0.479299	0.489299
12.970000	1.227000	1.661913	0.494610	0.454917	0.484610	0.494610
12.980000	0.960000	1.611955	0.500378	0.457061	0.490378	0.500378
12.990000	0.746700	1.488564	0.506645	0.459205	0.496645	0.506645
13.000000	0.800000	1.460593	0.513450	0.461350	0.503450	0.513450
13.010000	0.986700	1.612396	0.520834	0.463494	0.510834	0.520834
13.020000	0.880000	1.432573	0.528837	0.465638	0.518837	0.528837
13.030000	1.040000	1.886372	0.537499	0.467782	0.527499	0.537499
13.040000	1.333000	2.536840	0.546858	0.469926	0.536858	0.546858
13.050000	1.147000	1.823501	0.556951	0.472071	0.546951	0.556951
13.060000	1.280000	1.949769	0.567817	0.474215	0.557817	0.567817
13.070000	0.933300	1.508494	0.579491	0.476359	0.569491	0.579491
13.080000	0.880000	1.469331	0.592007	0.478503	0.582007	0.592007
13.090000	0.933300	1.828175	0.605400	0.480647	0.595400	0.605400
13.100000	1.173000	1.636039	0.619700	0.482792	0.609700	0.619700
13.110000	1.120000	1.766050	0.634941	0.484936	0.624941	0.634941
13.120000	1.173000	1.791635	0.651151	0.487080	0.641151	0.651151
13.130000	1.333000	2.022100	0.668360	0.489224	0.658360	0.668360
13.140000	0.853300	1.537906	0.686597	0.491368	0.676597	0.686597
13.150000	0.800000	1.600000	0.705888	0.493513	0.695888	0.705888
13.160000	0.933300	1.319933	0.726261	0.495657	0.716261	0.726261
13.170000	1.147000	1.936962	0.747741	0.497801	0.737741	0.747741
13.180000	1.493000	2.288367	0.770352	0.499945	0.760352	0.770352
13.190000	1.200000	1.932184	0.794121	0.502089	0.784121	0.794121
13.200000	1.013000	1.858267	0.819069	0.504234	0.809069	0.819069
13.210000	1.120000	1.795996	0.845221	0.506378	0.835221	0.845221
13.220000	1.307000	1.832836	0.872600	0.508522	0.862600	0.872600
13.230000	1.227000	1.596441	0.901227	0.510666	0.891227	0.901227
13.240000	1.333000	2.174601	0.931125	0.512810	0.921125	0.931125
13.250000	1.360000	2.017523	0.962314	0.514955	0.952314	0.962314
13.260000	1.387000	2.012583	0.994817	0.517099	0.984817	0.994817
13.270000	1.600000	2.141650	1.028653	0.519243	1.018653	1.028653
13.280000	1.147000	1.852518	1.063842	0.521387	1.053842	1.063842
13.290000	1.040000	1.708333	1.100406	0.523532	1.090406	1.100406
13.300000	1.520000	2.211244	1.138363	0.525676	1.128363	1.138363
13.310000	1.253000	2.059730	1.177732	0.527820	1.167732	1.177732
13.320000	1.467000	2.515728	1.218534	0.529964	1.208534	1.218534
13.330000	1.627000	2.302308	1.260787	0.532108	1.250787	1.260787
13.340000	1.253000	1.869712	1.304509	0.534253	1.294509	1.304509
13.350000	1.413000	1.869712	1.349718	0.536397	1.339718	1.349718
13.360000	1.840000	2.135665	1.396433	0.538541	1.386433	1.396433
13.370000	1.787000	2.664799	1.444672	0.540685	1.434672	1.444672
13.380000	1.787000	2.276215	1.494452	0.542829	1.484452	1.494452
13.390000	1.760000	1.875029	1.545791	0.544974	1.535791	1.545791
13.400000	1.893000	2.188292	1.598706	0.547118	1.588706	1.598706
13.410000	1.760000	2.308477	1.653214	0.549262	1.643214	1.653214
13.420000	2.027000	2.026316	1.709331	0.551406	1.699331	1.709331
13.430000	2.160000	2.688444	1.767075	0.553550	1.757075	1.767075
13.440000	1.867000	1.968643	1.826462	0.555695	1.816462	1.826462
13.450000	2.293000	2.415358	1.887509	0.557839	1.877509	1.887509
13.460000	1.973000	2.602426	1.950231	0.559983	1.940231	1.950231
13.470000	1.867000	2.699794	2.014644	0.562127	2.004644	2.014644
13.480000	2.720000	2.840469	2.080765	0.564271	2.070765	2.080765
13.490000	2.080000	2.319540	2.148609	0.566416	2.138609	2.148609
13.500000	2.373000	2.726528	2.218192	0.568560	2.208192	2.218192
13.510000	2.560000	2.644441	2.289529	0.570704	2.279529	2.289529
13.520000	2.240000	2.443167	2.362635	0.572848	2.352635	2.362635
13.530000	3.040000	2.495008	2.437526	0.574992	2.427526	2.437526
13.540000	2.533000	2.834706	2.514216	0.577137	2.504216	2.514216
13.550000	2.587000	2.842972	2.592721	0.579281	2.582721	2.592721
13.560000	2.453000	2.541880	2.673054	0.581425	2.663054	2.673054
13.570000	3.333000	3.069564	2.755232	0.583569	2.745232	2.755232
13.580000	2.587000	2.880247	2.839268	0.585713	2.829268	2.839268
13.590000	3.280000	3.340898	2.925177	0.587858	2.915177	2.925177
13.600000	2.773000	3.096550	3.012973	0.590002	3.002973	3.012973
13.610000	3.387000	2.827924	3.102670	0.592146	3.092670	3.102670
13.620000	3.280000	2.950977	3.194282	0.594290	3.184282	3.194282
13.630000	3.013000	2.872831	3.287824	0.596434	3.277824	3.287824
13.640000	3.280000	2.725485	3.383309	0.598579	3.373309	3.383309
13.650000	3.653000	3.612915	3.480751	0.600723	3.470751	3.480751
13.660000	3.440000	3.371409	3.580163	0.602867	3.570163	3.580163
13.670000	3.147000	3.285091	3.681560	0.605011	3.671560	3.681560
13.680000	2.987000	2.620399	3.784955	0.607155	3.774955	3.784955
13.690000	3.787000	3.418746	3.890361	0.609300	3.880361	3.890361
13.700000	4.160000	4.010121	3.997791	0.611444	3.987791	3.997791
13.710000	3.867000	3.351948	4.107259	0.613588	4.097259	4.107259
13.720000	4.373000	3.969125	4.218777	0.615732	4.208777	4.218777
13.730000	4.347000	3.671488	4.332360	0.617877	4.322360	4.332360
13.740000	3.787000	3.038830	4.448019	0.620021	4.438019	4.448019
13.750000	3.973000	3.494656	4.565768	0.622165	4.555768	4.565768
13.760000	4.293000	3.341749	4.685620	0.624309	4.675620	4.685620
13.770000	4.373000	3.818458	4.807587	0.626453	4.797587	4.807587
13.780000	4.933000	3.612325	4.931681	0.628598	4.921681	4.931681
13.790000	4.133000	3.335999	5.057917	0.630742	5.047916	5.057917
13.800000	5.147000	4.503904	5.186305	0.632886	5.176305	5.186305
13.810000	5.333000	4.004442	5.316858	0.635030	5.306858	5.316858
13.820000	4.693000	3.939453	5.449590	0.637174	5.439590	5.449590
13.830000	4.640000	3.301071	5.584511	0.639319	5.574511	5.584511
13.840000	5.387000	3.501974	5.721635	0.641463	5.711635	5.721635
13.850000	5.173000	3.593970	5.860973	0.643607	5.850973	5.860973
13.860000	5.173000	3.652847	6.002538	0.645751	5.992537	6.002538
13.870000	5.947000	4.320165	6.146341	0.647895	6.136340	6.146341
13.880000	6.240000	4.629874	6.292395	0.650040	6.282394	6.292395
13.890000	5.573000	3.699273	6.440712	0.652184	6.430710	6.440712
13.900000	6.533000	4.336922	6.591303	0.654328	6.581300	6.591303
13.910000	6.453000	4.352144	6.744181	0.656472	6.734176	6.744181
13.920000	6.587000	4.786351	6.899358	0.658616	6.889349	6.899358
13.930000	5.760000	4.257824	7.056846	0.660761	7.046832	7.056846
13.940000	6.160000	4.102162	7.216657	0.662905	7.206636	7.216657
13.950000	7.413000	4.604616	7.378805	0.665049	7.368772	7.378805
13.960000	6.827000	4.221764	7.543303	0.667193	7.533252	7.543303
13.970000	7.360000	4.856995	7.710164	0.669337	7.700087	7.710164
13.980000	7.040000	4.541483	7.879404	0.671482	7.869289	7.879404
13.990000	7.467000	4.564598	8.051040	0.673626	8.040869	8.051040
14.000000	6.533000	4.030991	8.225090	0.675770	8.214838	8.225090
14.010000	8.693000	5.022545	8.401573	0.677914	8.391208	8.401573
14.020000	7.973000	4.936864	8.580514	0.680058	8.569989	8.580514
14.030000	8.027000	4.436134	8.761940	0.682203	8.751193	8.761940
14.040000	7.893000	4.306811	8.945881	0.684347	8.934830	8.945881
14.050000	8.587000	5.578753	9.132377	0.686491	9.120912	9.132377
14.060000	8.853000	4.944204	9.321470	0.688635	9.309449	9.321470
14.070000	8.773000	4.973458	9.513211	0.690779	9.500453	9.513211
14.080000	8.160000	5.014752	9.707662	0.692924	9.693935	9.707662
14.090000	10.030000	5.874178	9.904892	0.695068	9.889904	9.904892
14.100000	10.050000	5.445227	10.104984	0.697212	10.088373	10.104984
14.110000	9.440000	4.716609	10.308032	0.699356	10.289351	10.308032
14.120000	9.547000	5.342392	10.514142	0.701500	10.492849	10.514142
14.130000	9.200000	6.075086	10.723436	0.703645	10.698878	10.723436
14.140000	10.960000	5.042328	10.936050	0.705789	10.907449	10.936050
14.150000	12.030000	6.008824	11.152133	0.707933	11.118571	11.152133
14.160000	9.573000	5.146321	11.371850	0.710077	11.332256	11.371850
14.170000	10.880000	5.944095	11.595378	0.712221	11.548514	11.595378
14.180000	10.030000	3.871171	11.822907	0.714366	11.767355	11.822907
14.190000	11.630000	4.928215	12.054640	0.716510	11.988789	12.054640
14.200000	12.130000	5.971786	12.290788	0.718654	12.212828	12.290788
14.210000	12.480000	5.254484	12.531570	0.720798	12.439481	12.531570
14.220000	11.790000	6.855253	12.777210	0.722943	12.668758	12.777210
14.230000	11.950000	5.386140	13.027937	0.725087	12.900670	13.027937
14.240000	14.610000	6.004207	13.283981	0.727231	13.135227	13.283981
14.250000	12.800000	6.424951	13.545570	0.729375	13.372438	13.545570
14.260000	13.010000	6.148157	13.812929	0.731519	13.612315	13.812929
14.270000	14.290000	7.416691	14.086280	0.733664	13.854866	14.086280
14.280000	14.430000	5.962491	14.365836	0.735808	14.100103	14.365836
14.290000	14.640000	5.534474	14.651805	0.737952	14.348034	14.651805
14.300000	13.520000	5.776643	14.944383	0.740096	14.598671	14.944383
14.310000	14.530000	6.861164	15.243760	0.742240	14.852022	15.243760
14.320000	16.690000	6.379078	15.550113	0.744385	15.108098	15.550113
14.330000	15.040000	6.838011	15.863610	0.746529	15.366908	15.863610
14.340000	16.480000	7.049085	16.184411	0.748673	15.628463	16.184411
14.350000	15.950000	6.685095	16.512663	0.750817	15.892771	16.512663
14.360000	16.160000	5.849308	16.848507	0.752961	16.159843	16.848507
14.370000	16.720000	6.824583	17.192072	0.755106	16.429689	17.192072
14.380000	17.570000	5.908579	17.543483	0.757250	16.702317	17.543483
14.390000	17.550000	6.044929	17.902855	0.759394	16.977739	17.902855
14.400000	18.720000	7.115354	18.270296	0.761538	17.255962	18.270296
14.410000	18.510000	7.222878	18.645910	0.763682	17.536997	18.645910
14.420000	18.560000	7.451604	19.029796	0.765827	17.820854	19.029796
14.430000	19.520000	6.356855	19.422045	0.767971	18.107541	19.422045
14.440000	18.610000	7.310073	19.822746	0.770115	18.397068	19.822746
14.450000	19.570000	7.239104	20.231986	0.772259	18.689445	20.231986
14.460000	20.830000	7.476851	20.649845	0.774403	18.984681	20.649845
14.470000	22.960000	7.995732	21.076403	0.776548	19.282785	21.076403
14.480000	22.190000	8.788923	21.511735	0.778692	19.583767	21.511735
14.490000	23.650000	9.657458	21.955917	0.780836	19.887636	21.955917
14.500000	22.930000	8.424304	22.409018	0.782980	20.194401	22.409018
14.510000	23.520000	7.424931	22.871109	0.785124	20.504072	22.871109
14.520000	24.590000	8.762182	23.342258	0.787269	20.816657	23.342258
14.530000	23.310000	7.676759	23.822531	0.789413	21.132166	23.822531
14.540000	24.510000	7.973914	24.311993	0.791557	21.450608	24.311993
14.550000	25.200000	7.133022	24.810707	0.793701	21.771993	24.810707
14.560000	25.470000	8.808078	25.318736	0.795845	22.096328	25.318736
14.570000	24.670000	8.219219	25.836139	0.797990	22.423624	25.836139
14.580000	27.550000	7.760230	26.362977	0.800134	22.753889	26.362977
14.590000	28.720000	9.491835	26.899307	0.802278	23.087132	26.899307
14.600000	27.840000	9.731105	27.445189	0.804422	23.423363	27.445189
14.610000	28.800000	8.384112	28.000677	0.806566	23.762590	28.000677
14.620000	27.010000	8.430886	28.565828	0.808711	24.104822	28.565828
14.630000	28.450000	10.294715	29.140696	0.810855	24.450068	29.140696
14.640000	28.670000	9.624045	29.725334	0.812999	24.798337	29.725334
14.650000	28.530000	9.262590	30.319797	0.815143	25.149638	30.319797
14.660000	32.910000	11.134539	30.924135	0.817288	25.503979	30.924135
14.670000	31.710000	8.912574	31.538401	0.819432	25.861370	31.538401
14.680000	31.410000	7.924803	32.162645	0.821576	26.221820	32.162645
14.690000	33.040000	9.047195	32.796917	0.823720	26.585336	32.796917
14.700000	33.440000	10.279092	33.441267	0.825864	26.951927	33.441267
14.710000	32.640000	10.245832	34.095742	0.828009	27.321603	34.095742
14.720000	36.210000	10.701145	34.760392	0.830153	27.694372	34.760392
14.730000	35.490000	10.578436	35.435264	0.832297	28.070243	35.435264
14.740000	36.030000	10.042541	36.120404	0.834441	28.449224	36.120404
14.750000	36.990000	8.952458	36.815859	0.836585	28.831324	36.815859
14.760000	35.890000	9.835411	37.521674	0.838730	29.216552	37.521674
14.770000	39.440000	10.711041	38.237896	0.840874	29.604915	38.237896
14.780000	36.610000	10.301966	38.964568	0.843018	29.996423	38.964568
14.790000	40.560000	11.737393	39.701735	0.845162	30.391084	39.701735
14.800000	40.990000	10.941656	40.449441	0.847306	30.788907	40.449441
14.810000	41.920000	11.488847	41.207729	0.849451	31.189900	41.207729
14.820000	42.160000	9.974688	41.976642	0.851595	31.594071	41.976642
14.830000	43.440000	11.424232	42.756223	0.853739	32.001429	42.756223
14.840000	44.530000	10.089379	43.546513	0.855883	32.411982	43.546513
14.850000	46.350000	12.121049	44.347554	0.858027	32.825739	44.347554
14.860000	47.490000	15.048698	45.159388	0.860172	33.242707	45.159388
14.870000	45.790000	12.575419	45.982054	0.862316	33.662896	45.982054
14.880000	47.730000	10.873005	46.815595	0.864460	34.086314	46.815595
14.890000	46.930000	11.804331	47.660048	0.866604	34.512969	47.660048
14.900000	49.570000	12.641913	48.515455	0.868748	34.942868	48.515455
14.910000	50.400000	12.132601	49.381855	0.870893	35.376022	49.381855
14.920000	50.990000	11.567188	50.259287	0.873037	35.812436	50.259287
14.930000	49.120000	12.771802	51.147789	0.875181	36.252121	51.147789
14.940000	52.990000	12.905290	52.047399	0.877325	36.695083	52.047399
14.950000	52.930000	13.546300	52.958156	0.879469	37.141332	52.958156
14.960000	54.510000	14.938428	53.880098	0.881614	37.590875	53.880098
14.970000	56.350000	14.456827	54.813262	0.883758	38.043721	54.813262
14.980000	55.730000	13.048968	55.757684	0.885902	38.499877	55.757684
14.990000	58.000000	13.100636	56.713403	0.888046	38.959351	56.713403
15.000000	58.430000	12.407711	57.680453	0.890190	39.422152	57.680453
15.010000	59.470000	14.452989	58.658872	0.892335	39.888288	58.658872
15.020000	58.670000	12.437935	59.648696	0.894479	40.357767	59.648696
15.030000	62.240000	14.001752	60.649959	0.896623	40.830596	60.649959
15.040000	60.690000	12.121577	61.662699	0.898767	41.306784	61.662699
15.050000	60.480000	13.217524	62.686949	0.900911	41.786339	62.686949
15.060000	63.520000	14.250483	63.722744	0.903056	42.269269	63.722744
15.070000	65.760000	12.526069	64.770121	0.905200	42.755580	64.770121
15.080000	65.950000	13.422264	65.829112	0.907344	43.245283	65.829112
15.090000	66.370000	15.905365	66.899751	0.909488	43.738384	66.899751
15.100000	67.890000	13.338240	67.982074	0.911633	44.234890	67.982074
15.110000	69.570000	14.650755	69.076114	0.913777	44.734811	69.076114
15.120000	71.250000	16.623753	70.181904	0.915921	45.238154	70.181904
15.130000	69.390000	14.499557	71.299477	0.918065	45.744927	71.299477
15.140000	72.350000	15.375733	72.428867	0.920209	46.255137	72.428867
15.150000	72.910000	15.650494	73.570106	0.922354	46.768792	73.570106
15.160000	74.370000	16.111920	74.723227	0.924498	47.285901	74.723227
15.170000	76.670000	16.176801	75.888262	0.926642	47.806470	75.888262
15.180000	76.690000	15.552041	77.065245	0.928786	48.330508	77.065245
15.190000	76.990000	14.946566	78.254205	0.930930	48.858022	78.254205
15.200000	78.960000	17.040689	79.455177	0.933075	49.389020	79.455177
15.210000	82.530000	16.363646	80.668190	0.935219	49.923510	80.668190
15.220000	80.530000	14.416041	81.893277	0.937363	50.461499	81.893277
15.230000	83.920000	15.527833	83.130469	0.939507	51.002995	83.130469
15.240000	82.670000	14.371577	84.379797	0.941651	51.548005	84.379797
15.250000	86.000000	16.079801	85.641292	0.943796	52.096538	85.641292
15.260000	85.710000	15.504643	86.914984	0.945940	52.648600	86.914984
15.270000	90.110000	17.726495	88.200905	0.948084	53.204200	88.200905
15.280000	88.480000	15.230986	89.499083	0.950228	53.763344	89.499083
15.290000	92.030000	17.875103	90.809551	0.952372	54.326041	90.809551
15.300000	92.610000	17.269544	92.132337	0.954517	54.892298	92.132337
15.310000	92.990000	17.458136	93.467472	0.956661	55.462123	93.467472
15.320000	95.250000	19.048775	94.814985	0.958805	56.035523	94.814985
15.330000	96.910000	18.719810	96.174906	0.960949	56.612505	96.174906
15.340000	96.560000	16.699892	97.547264	0.963093	57.193077	97.547264
15.350000	98.190000	20.098885	98.932088	0.965238	57.777246	98.932088
15.360000	103.700000	18.416496	100.329408	0.967382	58.365020	100.329408
15.370000	97.090000	17.796759	101.739253	0.969526	58.956406	101.739253
15.380000	102.700000	17.465070	103.161651	0.971670	59.551413	103.161651
15.390000	103.800000	20.511265	104.596630	0.973814	60.150046	104.596630
15.400000	104.100000	18.255794	106.044220	0.975959	60.752313	106.044220
15.410000	103.400000	17.046368	107.504449	0.978103	61.358223	107.504449
15.420000	106.700000	20.822152	108.977345	0.980247	61.967781	108.977345
15.430000	110.900000	17.264047	110.462935	0.982391	62.580996	110.462935
15.440000	111.000000	19.493247	111.961249	0.984535	63.197875	111.961249
15.450000	110.900000	19.604608	113.472313	0.986680	63.818424	113.472313
15.460000	111.100000	24.412442	114.996156	0.988824	64.442653	114.996156
15.470000	113.800000	20.127527	116.532804	0.990968	65.070566	116.532804
15.480000	121.000000	20.078181	118.082286	0.993112	65.702173	118.082286
15.490000	121.400000	20.590159	119.644628	0.995256	66.337480	119.644628
15.500000	125.700000	19.851163	121.219859	0.997401	66.976494	121.219859
15.510000	120.500000	18.569778	122.808003	0.999545	67.619223	122.808003
15.520000	121.100000	19.542211	124.409090	1.001689	68.265673	124.409090
15.530000	126.400000	20.206138	126.023145	1.003833	68.915853	126.023145
15.540000	127.900000	21.179723	127.650195	1.005977	69.569769	127.650195
15.550000	133.700000	22.458718	129.290266	1.008122	70.227428	129.290266
15.560000	131.800000	18.750787	130.943386	1.010266	70.888837	130.943386
15.570000	133.800000	22.307368	132.609580	1.012410	71.554004	132.609580
15.580000	133.300000	22.449098	134.288874	1.014554	72.222936	134.288874
15.590000	134.100000	22.576315	135.981295	1.016699	72.895639	135.981295
15.600000	136.500000	20.359027	137.686869	1.018843	73.572122	137.686869
15.610000	141.200000	22.297384	139.405620	1.020987	74.252390	139.405620
15.620000	139.800000	21.216283	141.137576	1.023131	74.936452	141.137576
15.630000	145.200000	21.266813	142.882762	1.025275	75.624313	142.882762
15.640000	152.400000	21.884546	144.641203	1.027420	76.315982	144.641203
15.650000	145.300000	21.652636	146.412925	1.029564	77.011465	146.412925
15.660000	146.200000	24.189860	148.197952	1.031708	77.710769	148.197952
15.670000	147.800000	25.246676	149.996311	1.033852	78.413902	149.996311
15.680000	155.300000	22.837031	151.808026	1.035996	79.120869	151.808026
15.690000	154.700000	24.805362	153.633123	1.038141	79.831679	153.633123
15.700000	158.100000	25.809339	155.471626	1.040285	80.546337	155.471626
15.710000	156.300000	26.674720	157.323559	1.042429	81.264852	157.323559
15.720000	158.100000	21.386335	159.188949	1.044573	81.987230	159.188949
15.730000	166.000000	25.721586	161.067819	1.046717	82.713478	161.067819
15.740000	161.000000	23.108729	162.960193	1.048862	83.443602	162.960193
15.750000	163.300000	26.114913	164.866097	1.051006	84.177610	164.866097
15.760000	172.900000	24.007096	166.785555	1.053150	84.915509	166.785555
15.770000	166.300000	24.296817	168.718590	1.055294	85.657306	168.718590
15.780000	167.500000	25.963243	170.665227	1.057438	86.403007	170.665227
15.790000	176.300000	24.154378	172.625491	1.059583	87.152619	172.625491
15.800000	175.700000	25.824730	174.599404	1.061727	87.906149	174.599404
15.810000	180.600000	23.966588	176.586991	1.063871	88.663604	176.586991
15.820000	175.500000	25.173730	178.588276	1.066015	89.424990	178.588276
15.830000	179.500000	23.794887	180.603282	1.068159	90.190315	180.603282
15.840000	187.700000	25.027651	182.632033	1.070304	90.959586	182.632033
15.850000	187.100000	26.034426	184.674553	1.072448	91.732808	184.674553
15.860000	191.900000	25.374725	186.730864	1.074592	92.509990	186.730864
15.870000	192.500000	28.127033	188.800991	1.076736	93.291137	188.800991
15.880000	194.800000	28.425341	190.884956	1.078880	94.076256	190.884956
15.890000	197.600000	26.999852	192.982782	1.081025	94.865354	192.982782
15.900000	199.600000	22.982196	195.094494	1.083169	95.658439	195.094494
15.910000	195.800000	25.666528	197.220113	1.085313	96.455515	197.220113
15.920000	204.300000	24.540674	199.359664	1.087457	97.256591	199.359664
15.930000	202.100000	30.737502	201.513167	1.089601	98.061673	201.513167
15.940000	200.700000	31.403853	203.680647	1.091746	98.870768	203.680647
15.950000	210.500000	29.072037	205.862127	1.093890	99.683882	205.862127
15.960000	208.900000	28.524972	208.057628	1.096034	100.501021	208.057628
15.970000	211.000000	30.074352	210.267173	1.098178	101.322194	210.267173
15.980000	216.500000	29.340018	212.490785	1.100322	102.147405	212.490785
15.990000	215.900000	27.065045	214.728486	1.102467	102.976662	214.728486
16.000000	223.900000	31.205886	216.980299	1.104611	103.809972	216.980299
16.010000	220.000000	29.823481	219.246245	1.106755	104.647341	219.246245
16.020000	234.100000	32.915802	221.526348	1.108899	105.488775	221.526348
16.030000	226.200000	32.175477	223.820628	1.111044	106.334282	223.820628
16.040000	231.000000	30.563377	226.129109	1.113188	107.183867	226.129109
16.050000	231.000000	35.129285	228.451811	1.115332	108.037538	228.451811
16.060000	231.900000	31.235695	230.788758	1.117476	108.895300	230.788758
16.070000	238.000000	27.643444	233.139970	1.119620	109.757161	233.139970
16.080000	243.000000	32.195031	235.505469	1.121765	110.623127	235.505469
16.090000	249.500000	35.222105	237.885278	1.123909	111.493204	237.885278
16.100000	240.400000	31.272906	240.279418	1.126053	112.367400	240.279418
16.110000	247.900000	34.566024	242.687910	1.128197	113.245720	242.687910
16.120000	252.300000	30.373135	245.110775	1.130341	114.128170	245.110775
16.130000	253.900000	31.642830	247.548036	1.132486	115.014759	247.548036
16.140000	253.300000	35.182562	249.999714	1.134630	115.905491	249.999714
16.150000	261.100000	33.914707	252.465830	1.136774	116.800373	252.465830
16.160000	260.600000	34.108494	254.946404	1.138918	117.699413	254.946404
16.170000	266.600000	32.084181	257.441459	1.141062	118.602615	257.441459
16.180000	276.300000	30.453801	259.951015	1.143207	119.509987	259.951015
16.190000	270.700000	32.903566	262.475094	1.145351	120.421536	262.475094
16.200000	277.100000	37.077639	265.013715	1.147495	121.337266	265.013715
16.210000	274.400000	34.181789	267.566901	1.149639	122.257186	267.566901
16.220000	286.800000	33.649329	270.134672	1.151783	123.181301	270.134672
16.230000	286.100000	30.435670	272.717049	1.153928	124.109617	272.717049
16.240000	281.600000	34.486712	275.314053	1.156072	125.042142	275.314053
16.250000	287.400000	35.155388	277.925704	1.158216	125.978881	277.925704
16.260000	285.400000	32.859742	280.552022	1.160360	126.919841	280.552022
16.270000	286.600000	34.982014	283.193029	1.162504	127.865027	283.193029
16.280000	298.400000	38.803024	285.848745	1.164649	128.814447	285.848745
16.290000	304.000000	32.147991	288.519190	1.166793	129.768107	288.519190
16.300000	305.000000	36.311798	291.204384	1.168937	130.726013	291.204384
16.310000	304.000000	38.184814	293.904348	1.171081	131.688171	293.904348
16.320000	312.000000	35.677070	296.619103	1.173225	132.654588	296.619103
16.330000	312.200000	35.977141	299.348668	1.175370	133.625270	299.348668
16.340000	316.000000	36.169232	302.093063	1.177514	134.600223	302.093063
16.350000	317.100000	35.422545	304.852309	1.179658	135.579453	304.852309
16.360000	323.000000	37.679880	307.626426	1.181802	136.562967	307.626426
16.370000	326.500000	39.429727	310.415433	1.183946	137.550771	310.415433
16.380000	325.200000	38.063806	313.219350	1.186091	138.542871	313.219350
16.390000	328.500000	39.116365	316.038198	1.188235	139.539273	316.038198
16.400000	337.900000	38.131483	318.871996	1.190379	140.539984	318.871996
16.410000	332.900000	38.947820	321.720764	1.192523	141.545010	321.720764
16.420000	337.600000	36.032578	324.584521	1.194667	142.554357	324.584521
16.430000	344.400000	36.755045	327.463288	1.196812	143.568031	327.463288
16.440000	348.500000	42.955597	330.357083	1.198956	144.586039	330.357083
16.450000	346.800000	36.752143	333.265927	1.201100	145.608386	333.265927
16.460000	354.700000	45.558278	336.189838	1.203244	146.635079	336.189838
16.470000	350.500000	37.331086	339.128837	1.205389	147.666124	339.128837
16.480000	365.000000	37.974553	342.082942	1.207533	148.701527	342.082942
16.490000	360.600000	38.327675	345.052174	1.209677	149.741294	345.052174
16.500000	373.500000	37.730757	348.036550	1.211821	150.785431	348.036550
16.510000	369.500000	41.814631	351.036091	1.213965	151.833945	351.036091
16.520000	369.700000	35.461669	354.050816	1.216110	152.886841	354.050816
16.530000	376.800000	38.975001	357.080744	1.218254	153.944126	357.080744
16.540000	381.100000	39.155545	360.125893	1.220398	155.005806	360.125893
16.550000	386.200000	40.177174	363.186284	1.222542	156.071886	363.186284
16.560000	387.800000	40.133079	366.261934	1.224686	157.142374	366.261934
16.570000	395.800000	47.246051	369.352864	1.226831	158.217274	369.352864
16.580000	387.400000	39.815809	372.459091	1.228975	159.296594	372.459091
16.590000	391.100000	43.759761	375.580634	1.231119	160.380338	375.580634
16.600000	403.900000	45.334777	378.717513	1.233263	161.468514	378.717513
16.610000	401.500000	40.095345	381.869747	1.235407	162.561127	381.869747
16.620000	410.100000	45.368234	385.037353	1.237552	163.658183	385.037353
16.630000	422.700000	49.432506	388.220351	1.239696	164.759689	388.220351
16.640000	418.000000	42.469126	391.418758	1.241840	165.865649	391.418758
16.650000	415.500000	45.124236	394.632595	1.243984	166.976071	394.632595
16.660000	427.000000	47.202684	397.861879	1.246128	168.090961	397.861879
16.670000	427.700000	40.636790	401.106629	1.248273	169.210323	401.106629
16.680000	433.100000	47.642271	404.366862	1.250417	170.334165	404.366862
16.690000	430.000000	38.594646	407.642599	1.252561	171.462492	407.642599
16.700000	432.900000	46.284159	410.933856	1.254705	172.595310	410.933856
16.710000	433.500000	46.680010	414.240653	1.256849	173.732625	414.240653
16.720000	449.300000	49.238244	417.563007	1.258994	174.874443	417.563007
16.730000	447.300000	48.022932	420.900936	1.261138	176.020771	420.900936
16.740000	456.900000	43.910447	424.254460	1.263282	177.171613	424.254460
16.750000	460.300000	43.501471	427.623595	1.265426	178.326976	427.623595
16.760000	455.000000	48.554986	431.008361	1.267570	179.486866	431.008361
16.770000	466.600000	49.625773	434.408775	1.269715	180.651288	434.408775
16.780000	465.100000	46.667383	437.824855	1.271859	181.820250	437.824855
16.790000	478.300000	45.443467	441.256619	1.274003	182.993755	441.256619
16.800000	481.800000	43.738831	444.704085	1.276147	184.171812	444.704085
16.810000	474.900000	55.920128	448.167272	1.278291	185.354424	448.167272
16.820000	488.100000	54.130059	451.646195	1.280436	186.541599	451.646195
16.830000	486.500000	53.748147	455.140875	1.282580	187.733341	455.140875
16.840000	498.100000	51.558013	458.651328	1.284724	188.929657	458.651328
16.850000	495.000000	53.754380	462.177572	1.286868	190.130554	462.177572
16.860000	496.900000	53.706654	465.719624	1.289012	191.336035	465.719624
16.870000	508.000000	55.416965	469.277503	1.291157	192.546108	469.277503
16.880000	505.300000	48.494666	472.851226	1.293301	193.760779	472.851226
16.890000	515.800000	47.685162	476.440811	1.295445	194.980052	476.440811
16.900000	511.800000	51.626944	480.046274	1.297589	196.203934	480.046274
16.910000	521.700000	53.182798	483.667635	1.299733	197.432431	483.667635
16.920000	523.100000	50.572502	487.304909	1.301878	198.665548	487.304909
16.930000	534.100000	54.640101	490.958115	1.304022	199.903292	490.958115
16.940000	525.600000	49.623973	494.627269	1.306166	201.145668	494.627269
16.950000	537.000000	56.422572	498.312389	1.308310	202.392681	498.312389
16.960000	538.600000	54.132258	502.013493	1.310455	203.644338	502.013493
16.970000	545.100000	59.331560	505.730598	1.312599	204.900644	505.730598
16.980000	552.300000	60.420212	509.463721	1.314743	206.161606	509.463721
16.990000	545.700000	51.251062	513.212878	1.316887	207.427228	513.212878
17.000000	566.200000	56.061086	516.978088	1.319031	208.697517	516.978088
17.010000	552.900000	54.313995	520.759367	1.321176	209.972478	520.759367
17.020000	561.600000	54.997697	524.556733	1.323320	211.252117	524.556733
17.030000	569.000000	49.064176	528.370202	1.325464	212.536440	528.370202
17.040000	572.400000	59.066245	532.199792	1.327608	213.825453	532.199792
17.050000	582.200000	55.497916	536.045519	1.329752	215.119160	536.045519
17.060000	582.200000	59.780554	539.907400	1.331897	216.417569	539.907400
17.070000	589.500000	59.844549	543.785453	1.334041	217.720684	543.785453
17.080000	589.900000	58.957968	547.679694	1.336185	219.028511	547.679694
17.090000	594.300000	65.214594	551.590140	1.338329	220.341057	551.590140
17.100000	606.100000	61.919512	555.516807	1.340473	221.658325	555.516807
17.110000	609.400000	52.994163	559.459713	1.342618	222.980324	559.459713
17.120000	604.200000	63.065321	563.418875	1.344762	224.307057	563.418875
17.130000	612.200000	56.673074	567.394308	1.346906	225.638530	567.394308
17.140000	611.800000	65.204151	571.386030	1.349050	226.974750	571.386030
17.150000	614.800000	57.278734	575.394057	1.351194	228.315722	575.394057
17.160000	625.200000	61.376130	579.418406	1.353339	229.661451	579.418406
17.170000	641.300000	73.440765	583.459093	1.355483	231.011943	583.459093
17.180000	638.300000	65.141809	587.516135	1.357627	232.367204	587.516135
17.190000	636.600000	57.947263	591.589549	1.359771	233.727240	591.589549
17.200000	641.900000	61.388680	595.679350	1.361915	235.092055	595.679350
17.210000	654.600000	64.262773	599.785555	1.364060	236.461656	599.785555
17.220000	652.400000	67.059933	603.908182	1.366204	237.836048	603.908182
17.230000	664.900000	62.246987	608.047245	1.368348	239.215237	608.047245
17.240000	665.900000	67.497748	612.202761	1.370492	240.599228	612.202761
17.250000	674.000000	63.617608	616.374747	1.372636	241.988027	616.374747
17.260000	679.700000	64.278016	620.563220	1.374781	243.381639	620.563220
17.270000	687.700000	70.900527	624.768194	1.376925	244.780071	624.768194
17.280000	685.800000	62.191253	628.989686	1.379069	246.183327	628.989686
17.290000	691.000000	57.204545	633.227713	1.381213	247.591413	633.227713
17.300000	698.300000	62.317076	637.482291	1.383357	249.004334	637.482291
17.310000	707.900000	68.676124	641.753435	1.385502	250.422097	641.753435
17.320000	697.700000	72.630824	646.041162	1.387646	251.844707	646.041162
17.330000	707.500000	63.316006	650.345488	1.389790	253.272168	650.345488
17.340000	713.100000	65.308494	654.666429	1.391934	254.704488	654.666429
17.350000	713.300000	68.266649	659.004001	1.394078	256.141671	659.004001
17.360000	726.900000	66.718268	663.358220	1.396223	257.583722	663.358220
17.370000	727.400000	79.279136	667.729101	1.398367	259.030648	667.729101
17.380000	732.900000	61.500520	672.116661	1.400511	260.482453	672.116661
17.390000	732.500000	70.177371	676.520915	1.402655	261.939144	676.520915
17.400000	746.200000	71.994055	680.941880	1.404800	263.400725	680.941880
17.410000	744.700000	68.716495	685.379571	1.406944	264.867202	685.379571
17.420000	749.200000	65.699031	690.055230	1.409088	266.559807	690.055230
17.430000	759.600000	72.720836	694.526666	1.411232	268.036339	694.526666
17.440000	758.100000	68.808871	699.014875	1.413376	269.517784	699.014875
17.450000	763.800000	75.040949	703.519874	1.415521	271.004146	703.519874
17.460000	770.100000	82.536453	708.041676	1.417665	272.495431	708.041676
17.470000	775.900000	71.947309	712.580299	1.419809	273.991644	712.580299
17.480000	785.900000	70.076106	717.135758	1.421953	275.492792	717.135758
17.490000	786.200000	75.201117	721.708068	1.424097	276.998879	721.708068
17.500000	793.300000	75.175523	726.297244	1.426242	278.509911	726.297244
17.510000	786.900000	73.431106	730.903303	1.428386	280.025894	730.903303
17.520000	809.800000	81.926520	735.526260	1.430530	281.546832	735.526260
17.530000	805.300000	70.926662	740.166130	1.432674	283.072731	740.166130
17.540000	806.500000	77.033391	744.822929	1.434818	284.603596	744.822929
17.550000	814.700000	72.308483	749.496672	1.436963	286.139434	749.496672
17.560000	823.100000	78.054472	754.187374	1.439107	287.680248	754.187374
17.570000	828.100000	79.315299	758.895052	1.441251	289.226046	758.895052
17.580000	834.300000	71.736327	763.619719	1.443395	290.776831	763.619719
17.590000	844.300000	85.378963	768.361392	1.445539	292.332609	768.361392
17.600000	855.900000	79.784004	773.120086	1.447684	293.893387	773.120086
17.610000	848.100000	82.270671	777.895816	1.449828	295.459168	777.895816
17.620000	847.700000	75.434170	782.688597	1.451972	297.029959	782.688597
17.630000	851.900000	79.916185	787.498445	1.454116	298.605764	787.498445
17.640000	874.100000	78.903380	792.325374	1.456260	300.186590	792.325374
17.650000	870.500000	72.981893	797.169400	1.458405	301.772441	797.169400
17.660000	877.500000	83.104332	802.030537	1.460549	303.363323	802.030537
17.670000	883.800000	73.532705	806.908802	1.462693	304.959240	806.908802
17.680000	869.500000	80.691078	811.804209	1.464837	306.560200	811.804209
17.690000	893.700000	84.611548	816.716772	1.466981	308.166206	816.716772
17.700000	904.500000	77.637512	821.646508	1.469126	309.777264	821.646508
17.710000	901.800000	77.002909	826.593431	1.471270	311.393379	826.593431
17.720000	893.100000	81.489038	831.557556	1.473414	313.014557	831.557556
17.730000	916.600000	78.908267	836.538898	1.475558	314.640802	836.538898
17.740000	934.400000	77.367142	841.537471	1.477702	316.272121	841.537471
17.750000	920.900000	76.250985	846.553292	1.479847	317.908518	846.553292
17.760000	928.200000	87.319536	851.586374	1.481991	319.549999	851.586374
17.770000	930.800000	75.478209	856.636732	1.484135	321.196569	856.636732
17.780000	940.400000	75.664734	861.704382	1.486279	322.848233	861.704382
17.790000	948.600000	80.519099	866.789337	1.488423	324.504997	866.789337
17.800000	947.500000	73.442835	871.891614	1.490568	326.166865	871.891614
17.810000	968.900000	74.030872	877.011226	1.492712	327.833843	877.011226
17.820000	970.000000	75.275848	882.148188	1.494856	329.505936	882.148188
17.830000	970.500000	81.136490	887.302515	1.497000	331.183150	887.302515
17.840000	974.900000	83.547476	892.474222	1.499145	332.865490	892.474222
17.850000	980.000000	88.575392	897.663323	1.501289	334.552960	897.663323
17.860000	985.500000	89.829375	902.869832	1.503433	336.245566	902.869832
17.870000	988.100000	85.407537	908.093765	1.505577	337.943314	908.093765
17.880000	1004.000000	84.664357	913.335137	1.507721	339.646208	913.335137
17.890000	996.500000	87.599753	918.593960	1.509866	341.354254	918.593960
17.900000	1009.000000	83.324506	923.870251	1.512010	343.067457	923.870251
17.910000	1017.000000	85.396877	929.164023	1.514154	344.785822	929.164023
17.920000	1021.000000	82.750307	934.475291	1.516298	346.509354	934.475291
17.930000	1027.000000	90.116591	939.804070	1.518442	348.238059	939.804070
17.940000	1032.000000	93.996028	945.150374	1.520587	349.971941	945.150374
17.950000	1035.000000	96.980754	950.514217	1.522731	351.711006	950.514217
17.960000	1046.000000	89.566065	955.895614	1.524875	353.455259	955.895614
17.970000	1046.000000	101.283497	961.294578	1.527019	355.204706	961.294578
17.980000	1060.000000	90.847858	966.711126	1.529163	356.959350	966.711126
17.990000	1060.000000	102.697225	972.145269	1.531308	358.719198	972.145269
18.000000	1055.000000	93.890362	977.597024	1.533452	360.484254	977.597024
18.010000	1072.000000	91.309875	983.066404	1.535596	362.254524	983.066404
18.020000	1069.000000	93.607051	988.553424	1.537740	364.030013	988.553424
18.030000	1086.000000	100.422839	994.058097	1.539884	365.810726	994.058097
18.040000	1088.000000	94.762018	999.580439	1.542029	367.596668	999.580439
18.050000	1107.000000	97.408213	1005.120462	1.544173	369.387844	1005.120462
18.060000	1105.000000	104.367236	1010.678182	1.546317	371.184260	1010.678182
18.070000	1109.000000	91.282054	1016.253612	1.548461	372.985920	1016.253612
18.080000	1114.000000	97.596994	1021.846766	1.550605	374.792829	1021.846766
18.090000	1120.000000	95.053950	1027.457660	1.552750	376.604993	1027.457660
18.100000	1123.000000	102.293890	1033.086306	1.554894	378.422417	1033.086306
18.110000	1123.000000	102.530321	1038.732718	1.557038	380.245105	1038.732718
18.120000	1139.000000	97.025838	1044.396912	1.559182	382.073064	1044.396912
18.130000	1141.000000	109.370258	1050.078900	1.561326	383.906297	1050.078900
18.140000	1149.000000	106.904755	1055.778697	1.563471	385.744810	1055.778697
18.150000	1159.000000	107.218593	1061.496316	1.565615	387.588609	1061.496316
18.160000	1165.000000	105.591098	1067.231773	1.567759	389.437698	1067.231773
18.170000	1170.000000	101.978298	1072.985080	1.569903	391.292082	1072.985080
18.180000	1175.000000	101.581297	1078.756251	1.572047	393.151766	1078.756251
18.190000	1190.000000	113.200471	1084.545301	1.574192	395.016755	1084.545301
18.200000	1182.000000	96.154875	1090.352243	1.576336	396.887055	1090.352243
18.210000	1190.000000	95.883819	1096.177091	1.578480	398.762670	1096.177091
18.220000	1194.000000	97.906895	1102.019859	1.580624	400.643606	1102.019859
18.230000	1204.000000	104.377264	1107.880561	1.582768	402.529867	1107.880561
18.240000	1208.000000	100.229337	1113.759210	1.584913	404.421459	1113.759210
18.250000	1211.000000	111.349719	1119.655820	1.587057	406.318386	1119.655820
18.260000	1228.000000	104.798219	1125.570406	1.589201	408.220654	1125.570406
18.270000	1230.000000	99.172039	1131.502980	1.591345	410.128267	1131.502980
18.280000	1221.000000	90.772903	1137.453556	1.593489	412.041231	1137.453556
18.290000	1244.000000	106.740058	1143.422148	1.595634	413.959551	1143.422148
18.300000	1250.000000	106.678583	1149.408770	1.597778	415.883231	1149.408770
18.310000	1248.000000	94.913013	1155.413436	1.599922	417.812276	1155.413436
18.320000	1255.000000	100.842517	1161.436158	1.602066	419.746692	1161.436158
18.330000	1259.000000	107.627196	1167.476951	1.604211	421.686484	1167.476951
18.340000	1268.000000	104.235886	1173.535828	1.606355	423.631656	1173.535828
18.350000	1272.000000	110.812514	1179.612803	1.608499	425.582214	1179.612803
18.360000	1280.000000	113.210600	1185.707889	1.610643	427.538162	1185.707889
18.370000	1294.000000	117.574374	1191.821100	1.612787	429.499505	1191.821100
18.380000	1291.000000	104.204606	1197.952449	1.614932	431.466249	1197.952449
18.390000	1299.000000	112.545517	1204.101950	1.617076	433.438398	1204.101950
18.400000	1319.000000	110.670381	1210.269616	1.619220	435.415957	1210.269616
18.410000	1308.000000	106.226676	1216.455460	1.621364	437.398932	1216.455460
18.420000	1314.000000	116.365172	1222.659497	1.623508	439.387326	1222.659497
18.430000	1335.000000	114.665136	1228.881739	1.625653	441.381146	1228.881739
18.440000	1332.000000	113.268295	1235.122200	1.627797	443.380396	1235.122200
18.450000	1337.000000	113.643830	1241.380893	1.629941	445.385081	1241.380893
18.460000	1338.000000	99.814762	1247.657832	1.632085	447.395206	1247.657832
18.470000	1355.000000	116.047059	1253.953029	1.634229	449.410775	1253.953029
18.480000	1361.000000	109.176005	1260.266499	1.636374	451.431794	1260.266499
18.490000	1362.000000	118.510759	1266.598254	1.638518	453.458268	1266.598254
18.500000	1381.000000	114.368003	1272.948308	1.640662	455.490201	1272.948308
18.510000	1382.000000	114.739822	1279.316674	1.642806	457.527599	1279.316674
18.520000	1385.000000	115.613321	1285.703366	1.644950	459.570466	1285.703366
18.530000	1389.000000	118.974003	1292.108395	1.647095	461.618808	1292.108395
18.540000	1418.000000	123.961069	1298.531777	1.649239	463.672628	1298.531777
18.550000	1410.000000	120.594085	1304.973523	1.651383	465.731933	1304.973523
18.560000	1405.000000	115.551951	1311.433647	1.653527	467.796726	1311.433647
18.570000	1422.000000	111.290611	1317.912163	1.655671	469.867013	1317.912163
18.580000	1420.000000	116.586563	1324.409083	1.657816	471.942799	1324.409083
18.590000	1438.000000	122.023167	1330.924420	1.659960	474.024088	1330.924420
18.600000	1438.000000	125.197444	1337.458187	1.662104	476.110885	1337.458187
18.610000	1433.000000	124.872789	1344.010399	1.664248	478.203196	1344.010399
18.620000	1437.000000	115.076960	1350.581066	1.666392	480.301025	1350.581066
18.630000	1466.000000	124.403001	1357.170204	1.668537	482.404377	1357.170204
18.640000	1454.000000	127.741405	1363.777824	1.670681	484.513256	1363.777824
18.650000	1479.000000	132.022776	1370.403940	1.672825	486.627668	1370.403940
18.660000	1471.000000	135.511426	1377.048564	1.674969	488.747618	1377.048564
18.670000	1474.000000	129.846063	1383.711711	1.677113	490.873109	1383.711711
18.680000	1488.000000	113.951569	1390.393391	1.679258	493.004148	1390.393391
18.690000	1481.000000	103.438162	1397.679868	1.681402	495.140739	1397.679868
18.700000	1503.000000	117.372285	1404.399021	1.683546	497.282887	1404.399021
18.710000	1507.000000	127.775793	1411.136747	1.685690	499.430596	1411.136747
18.720000	1512.000000	116.081121	1417.893059	1.687834	501.583871	1417.893059
18.730000	1517.000000	121.199065	1424.667969	1.689979	503.742718	1424.667969
18.740000	1549.000000	136.243850	1431.461490	1.692123	505.907141	1431.461490
18.750000	1543.000000	125.109179	1438.273636	1.694267	508.077144	1438.273636
18.760000	1546.000000	150.989978	1445.104419	1.696411	510.252733	1445.104419
18.770000	1541.000000	115.869524	1451.953851	1.698556	512.433913	1451.953851
18.780000	1553.000000	127.071371	1458.821946	1.700700	514.620687	1458.821946
18.790000	1572.000000	132.413695	1465.708717	1.702844	516.813062	1465.708717
18.800000	1567.000000	132.380613	1472.614175	1.704988	519.011041	1472.614175
18.810000	1580.000000	141.198678	1479.538335	1.707132	521.214630	1479.538335
18.820000	1585.000000	128.575944	1486.481208	1.709277	523.423833	1486.481208
18.830000	1601.000000	132.432574	1493.442807	1.711421	525.638655	1493.442807
18.840000	1596.000000	133.288459	1500.423145	1.713565	527.859100	1500.423145
18.850000	1609.000000	126.667386	1507.422235	1.715709	530.085175	1507.422235
18.860000	1607.000000	129.684489	1514.440089	1.717853	532.316882	1514.440089
18.870000	1613.000000	137.733801	1521.476720	1.719998	534.554228	1521.476720
18.880000	1635.000000	135.876169	1528.532141	1.722142	536.797217	1528.532141
18.890000	1625.000000	133.194344	1535.606363	1.724286	539.045853	1535.606363
18.900000	1634.000000	136.161277	1542.699401	1.726430	541.300141	1542.699401
18.910000	1643.000000	139.011127	1549.811265	1.728574	543.560086	1549.811265
18.920000	1638.000000	133.262648	1556.941970	1.730719	545.825694	1556.941970
18.930000	1657.000000	143.076064	1564.091527	1.732863	548.096967	1564.091527
18.940000	1663.000000	140.371460	1571.259948	1.735007	550.373912	1571.259948
18.950000	1651.000000	123.837474	1578.447248	1.737151	552.656533	1578.447248
18.960000	1671.000000	135.372425	1585.653437	1.739295	554.944834	1585.653437
18.970000	1687.000000	122.691755	1592.878528	1.741440	557.238821	1592.878528
18.980000	1697.000000	134.088677	1600.122534	1.743584	559.538498	1600.122534
18.990000	1685.000000	136.541422	1607.385468	1.745728	561.843869	1607.385468
19.000000	1705.000000	138.700397	1614.667341	1.747872	564.154940	1614.667341
19.010000	1725.000000	150.968915	1621.968167	1.750016	566.471715	1621.968167
19.020000	1710.000000	135.678050	1629.287957	1.752161	568.794199	1629.287957
19.030000	1725.000000	131.421510	1636.626724	1.754305	571.122397	1636.626724
19.040000	1727.000000	152.584971	1643.984480	1.756449	573.456313	1643.984480
19.050000	1745.000000	140.715268	1651.361238	1.758593	575.795951	1651.361238
19.060000	1737.000000	142.539772	1658.757009	1.760737	578.141317	1658.757009
19.070000	1772.000000	138.278945	1666.171807	1.762882	580.492416	1666.171807
19.080000	1773.000000	151.535562	1673.605644	1.765026	582.849251	1673.605644
19.090000	1775.000000	137.781034	1681.058532	1.767170	585.211828	1681.058532
19.100000	1773.000000	141.392833	1688.530482	1.769314	587.580151	1688.530482
19.110000	1785.000000	140.160432	1696.021508	1.771458	589.954225	1696.021508
19.120000	1794.000000	147.123350	1703.531622	1.773603	592.334055	1703.531622
19.130000	1793.000000	128.582580	1711.060836	1.775747	594.719645	1711.060836
19.140000	1804.000000	145.533501	1718.609162	1.777891	597.111000	1718.609162
19.150000	1807.000000	153.784395	1726.176612	1.780035	599.508124	1726.176612
19.160000	1802.000000	146.575669	1733.763199	1.782179	601.911022	1733.763199
19.170000	1824.000000	152.876595	1741.368934	1.784324	604.319699	1741.368934
19.180000	1823.000000	150.036929	1748.993830	1.786468	606.734159	1748.993830
19.190000	1835.000000	149.705979	1756.637899	1.788612	609.154408	1756.637899
19.200000	1859.000000	161.806592	1764.301154	1.790756	611.580449	1764.301154
19.210000	1854.000000	147.574704	1771.983605	1.792901	614.012287	1771.983605
19.220000	1870.000000	147.132231	1779.685266	1.795045	616.449928	1779.685266
19.230000	1862.000000	144.473481	1787.406148	1.797189	618.893374	1787.406148
19.240000	1869.000000	152.791405	1795.146264	1.799333	621.342632	1795.146264
19.250000	1891.000000	146.641831	1802.905625	1.801477	623.797706	1802.905625
19.260000	1891.000000	144.259165	1810.684244	1.803622	626.258600	1810.684244
19.270000	1898.000000	162.609225	1818.482133	1.805766	628.725318	1818.482133
19.280000	1909.000000	168.245337	1826.299303	1.807910	631.197867	1826.299303
19.290000	1913.000000	167.539488	1834.135767	1.810054	633.676249	1834.135767
19.300000	1925.000000	165.700895	1841.991536	1.812198	636.160470	1841.991536
19.310000	1929.000000	140.398053	1849.866623	1.814343	638.650534	1849.866623
19.320000	1923.000000	155.631145	1857.761040	1.816487	641.146447	1857.761040
19.330000	1931.000000	154.984171	1865.674798	1.818631	643.648211	1865.674798
19.340000	1946.000000	152.924382	1873.607909	1.820775	646.155833	1873.607909
19.350000	1958.000000	161.892475	1881.560386	1.822919	648.669316	1881.560386
19.360000	1967.000000	166.357487	1889.532240	1.825064	651.188665	1889.532240
19.370000	1964.000000	149.151735	1897.523483	1.827208	653.713885	1897.523483
19.380000	1967.000000	167.263584	1905.534127	1.829352	656.244980	1905.534127
19.390000	1969.000000	146.039036	1913.564184	1.831496	658.781955	1913.564184
19.400000	1991.000000	156.359713	1921.613666	1.833640	661.324814	1921.613666
19.410000	2005.000000	164.700739	1929.682584	1.835785	663.873563	1929.682584
19.420000	2011.000000	167.611097	1937.770951	1.837929	666.428204	1937.770951
19.430000	2011.000000	151.474310	1945.878778	1.840073	668.988744	1945.878778
19.440000	2022.000000	163.443609	1954.006077	1.842217	671.555186	1954.006077
19.450000	2024.000000	155.028428	1962.152859	1.844361	674.127536	1962.152859
19.460000	2033.000000	167.182256	1970.319137	1.846506	676.705796	1970.319137
19.470000	2039.000000	158.809362	1978.504922	1.848650	679.289973	1978.504922
19.480000	2038.000000	169.058412	1986.710227	1.850794	681.880071	1986.710227
19.490000	2050.000000	157.945813	1994.935062	1.852938	684.476094	1994.935062
19.500000	2063.000000	159.900427	2003.179439	1.855082	687.078046	2003.179439
19.510000	2068.000000	163.761290	2011.443371	1.857227	689.685933	2011.443371
19.520000	2078.000000	165.202583	2019.726868	1.859371	692.299758	2019.726868
19.530000	2085.000000	173.827616	2028.029943	1.861515	694.919527	2028.029943
19.540000	2100.000000	168.197344	2036.352607	1.863659	697.545243	2036.352607
19.550000	2099.000000	165.497029	2044.694872	1.865803	700.176912	2044.694872
19.560000	2117.000000	165.624596	2053.056750	1.867948	702.814537	2053.056750
19.570000	2096.000000	179.897156	2061.438251	1.870092	705.458123	2061.438251
19.580000	2115.000000	165.985823	2069.839388	1.872236	708.107675	2069.839388
19.590000	2112.000000	153.936091	2078.260173	1.874380	710.763197	2078.260173
19.600000	2128.000000	176.586900	2086.700616	1.876524	713.424694	2086.700616
19.610000	2143.000000	161.141056	2095.160729	1.878669	716.092170	2095.160729
19.620000	2146.000000	168.593238	2103.640525	1.880813	718.765630	2103.640525
19.630000	2142.000000	176.071652	2112.140014	1.882957	721.445078	2112.140014
19.640000	2184.000000	185.020215	2120.659208	1.885101	724.130518	2120.659208
19.650000	2177.000000	171.925061	2129.198119	1.887245	726.821955	2129.198119
19.660000	2167.000000	168.661041	2138.135834	1.889390	729.898470	2138.135834
19.670000	2192.000000	180.913534	2146.714493	1.891534	732.602196	2146.714493
19.680000	2181.000000	167.239349	2155.312904	1.893678	735.311932	2155.312904
19.690000	2195.000000	175.394831	2163.931077	1.895822	738.027683	2163.931077
19.700000	2211.000000	183.609259	2172.569023	1.897967	740.749453	2172.569023
19.710000	2235.000000	185.147257	2181.226755	1.900111	743.477247	2181.226755
19.720000	2204.000000	166.458964	2189.904284	1.902255	746.211068	2189.904284
19.730000	2227.000000	181.918480	2198.601620	1.904399	748.950922	2198.601620
19.740000	2245.000000	170.249190	2207.318776	1.906543	751.696813	2207.318776
19.750000	2237.000000	177.367227	2216.055763	1.908688	754.448745	2216.055763
19.760000	2251.000000	185.490018	2224.812592	1.910832	757.206723	2224.812592
19.770000	2269.000000	178.182940	2233.589275	1.912976	759.970751	2233.589275
19.780000	2283.000000	193.442463	2242.385822	1.915120	762.740833	2242.385822
